thisN,thisTrialN,thisRepN,mouse.x,mouse.y,mouse.leftButton,mouse.midButton,mouse.rightButton,mouse.time,mouse.clicked_name,trials.thisRepN,trials.thisTrialN,trials.thisN,trials.thisIndex,thisRow.t,notes,num_distr,trial.started,Fixation.started,Target.started,mouse.started,trial.stopped,trials.mouse.x,trials.mouse.y,trials.mouse.leftButton,trials.mouse.midButton,trials.mouse.rightButton,trials.mouse.time,trials.mouse.clicked_name,participant,session,date,expName,expVersion,psychopyVersion,frameRate,expStart,
0,0,0,[np.float64(-0.17916666666666667)],[np.float64(0.14583333333333334)],[1],[0],[0],[2.3306322999997064],['Target'],0,0,0,0,0.04520739999861689,,5,0.03349460000026738,0.04520739999861689,0.04520739999861689,0.033522800003993325,2.3642975999973714,[np.float64(-0.17916666666666667)],[np.float64(0.14583333333333334)],[1],[0],[0],[2.3306322999997064],['Target'],FIVE,001,2025-10-03_09h09.09.054,Visual Search Experiment,,2025.1.1,60.5381844605742,2025-10-03 09h15.18.294614 +0530,
1,0,1,[np.float64(-0.4861111111111111)],[np.float64(0.1763888888888889)],[1],[0],[0],[1.2720324999972945],['Target'],1,0,1,0,2.394859699998051,,10,2.3808196999962092,2.394859699998051,2.394859699998051,0.016424000001279637,3.6531659999964177,[np.float64(-0.4861111111111111)],[np.float64(0.1763888888888889)],[1],[0],[0],[1.2720324999972945],['Target'],FIVE,001,2025-10-03_09h09.09.054,Visual Search Experiment,,2025.1.1,60.5381844605742,2025-10-03 09h15.18.294614 +0530,
2,0,2,[np.float64(-0.0625)],[np.float64(0.44722222222222224)],[1],[0],[0],[1.7979005000015604],['Target'],2,0,2,0,3.6958401999945636,,10,3.6830475999959162,3.6958401999945636,3.6958401999945636,0.02954150000005029,5.481129200001305,[np.float64(-0.0625)],[np.float64(0.44722222222222224)],[1],[0],[0],[1.7979005000015604],['Target'],FIVE,001,2025-10-03_09h09.09.054,Visual Search Experiment,,2025.1.1,60.5381844605742,2025-10-03 09h15.18.294614 +0530,
3,0,3,[np.float64(-0.42916666666666664)],[np.float64(0.3055555555555556)],[1],[0],[0],[1.2426770999954897],['Target'],3,0,3,0,5.511208199997782,,5,5.494188299999223,5.511208199997782,5.511208199997782,0.012909400000353344,6.7370564000011655,[np.float64(-0.42916666666666664)],[np.float64(0.3055555555555556)],[1],[0],[0],[1.2426770999954897],['Target'],FIVE,001,2025-10-03_09h09.09.054,Visual Search Experiment,,2025.1.1,60.5381844605742,2025-10-03 09h15.18.294614 +0530,
4,0,4,[np.float64(-0.030555555555555555)],[np.float64(0.0763888888888889)],[1],[0],[0],[1.0195141000003787],['Target'],4,0,4,0,6.777619100001175,,10,6.760201199998846,6.777619100001175,6.777619100001175,0.023022499997750856,7.779906099996879,[np.float64(-0.030555555555555555)],[np.float64(0.0763888888888889)],[1],[0],[0],[1.0195141000003787],['Target'],FIVE,001,2025-10-03_09h09.09.054,Visual Search Experiment,,2025.1.1,60.5381844605742,2025-10-03 09h15.18.294614 +0530,
5,0,5,[np.float64(-0.24444444444444444)],[np.float64(-0.44583333333333336)],[1],[0],[0],[1.7063297999993665],['Target'],5,0,5,0,7.828421599995636,,10,7.806249799999932,7.828421599995636,7.828421599995636,0.026126400000066496,9.512725299995509,[np.float64(-0.24444444444444444)],[np.float64(-0.44583333333333336)],[1],[0],[0],[1.7063297999993665],['Target'],FIVE,001,2025-10-03_09h09.09.054,Visual Search Experiment,,2025.1.1,60.5381844605742,2025-10-03 09h15.18.294614 +0530,
6,0,6,[np.float64(-0.04583333333333333)],[np.float64(-0.016666666666666666)],[1],[0],[0],[1.4727855999954045],['Target'],6,0,6,0,9.628461799999059,,5,9.522554999995918,9.628461799999059,9.628461799999059,0.00973119999980554,10.99550449999515,[np.float64(-0.04583333333333333)],[np.float64(-0.016666666666666666)],[1],[0],[0],[1.4727855999954045],['Target'],FIVE,001,2025-10-03_09h09.09.054,Visual Search Experiment,,2025.1.1,60.5381844605742,2025-10-03 09h15.18.294614 +0530,
7,0,7,[np.float64(0.22361111111111112)],[np.float64(0.2875)],[1],[0],[0],[1.4022545000043465],['Target'],7,0,7,0,11.02658359999623,,10,11.01431899999443,11.02658359999623,11.02658359999623,0.018731900003331248,12.41670460000023,[np.float64(0.22361111111111112)],[np.float64(0.2875)],[1],[0],[0],[1.4022545000043465],['Target'],FIVE,001,2025-10-03_09h09.09.054,Visual Search Experiment,,2025.1.1,60.5381844605742,2025-10-03 09h15.18.294614 +0530,
8,0,8,[np.float64(0.03333333333333333)],[np.float64(-0.3527777777777778)],[1],[0],[0],[1.5191699999995762],['Target'],8,0,8,0,12.443700399999216,,5,12.427020099996298,12.443700399999216,12.443700399999216,0.010213800000201445,13.946331499995722,[np.float64(0.03333333333333333)],[np.float64(-0.3527777777777778)],[1],[0],[0],[1.5191699999995762],['Target'],FIVE,001,2025-10-03_09h09.09.054,Visual Search Experiment,,2025.1.1,60.5381844605742,2025-10-03 09h15.18.294614 +0530,
9,0,9,[np.float64(-0.42916666666666664)],[np.float64(0.4986111111111111)],[1],[0],[0],[1.431435100006638],['Target'],9,0,9,0,13.97652730000118,,10,13.965535499999532,13.97652730000118,13.97652730000118,0.01912330000050133,15.397126899995783,[np.float64(-0.42916666666666664)],[np.float64(0.4986111111111111)],[1],[0],[0],[1.431435100006638],['Target'],FIVE,001,2025-10-03_09h09.09.054,Visual Search Experiment,,2025.1.1,60.5381844605742,2025-10-03 09h15.18.294614 +0530,
10,0,10,[np.float64(0.3416666666666667)],[np.float64(0.2763888888888889)],[1],[0],[0],[1.4759425000011106],['Target'],10,0,10,0,15.461917699998594,,10,15.437385400000494,15.461917699998594,15.461917699998594,0.0401685999968322,16.913565999995626,[np.float64(0.3416666666666667)],[np.float64(0.2763888888888889)],[1],[0],[0],[1.4759425000011106],['Target'],FIVE,001,2025-10-03_09h09.09.054,Visual Search Experiment,,2025.1.1,60.5381844605742,2025-10-03 09h15.18.294614 +0530,
11,0,11,[np.float64(0.3347222222222222)],[np.float64(0.02361111111111111)],[1],[0],[0],[1.284761000002618],['Target'],11,0,11,0,16.943575299999793,,5,16.928277699997125,16.943575299999793,16.943575299999793,0.014575599998352118,18.213182899999083,[np.float64(0.3347222222222222)],[np.float64(0.02361111111111111)],[1],[0],[0],[1.284761000002618],['Target'],FIVE,001,2025-10-03_09h09.09.054,Visual Search Experiment,,2025.1.1,60.5381844605742,2025-10-03 09h15.18.294614 +0530,
12,0,12,[np.float64(0.3458333333333333)],[np.float64(-0.4638888888888889)],[1],[0],[0],[1.5480504000006476],['Target'],12,0,12,0,18.24289729999873,,10,18.230743399995845,18.24289729999873,18.24289729999873,0.01749779999954626,19.77895179999905,[np.float64(0.3458333333333333)],[np.float64(-0.4638888888888889)],[1],[0],[0],[1.5480504000006476],['Target'],FIVE,001,2025-10-03_09h09.09.054,Visual Search Experiment,,2025.1.1,60.5381844605742,2025-10-03 09h15.18.294614 +0530,
13,0,13,[np.float64(0.42083333333333334)],[np.float64(0.2625)],[1],[0],[0],[1.5476812999986578],['Target'],13,0,13,0,19.810426299998653,,10,19.79757609999797,19.810426299998653,19.810426299998653,0.018511199996282812,21.34539560000121,[np.float64(0.42083333333333334)],[np.float64(0.2625)],[1],[0],[0],[1.5476812999986578],['Target'],FIVE,001,2025-10-03_09h09.09.054,Visual Search Experiment,,2025.1.1,60.5381844605742,2025-10-03 09h15.18.294614 +0530,
14,0,14,[np.float64(-0.2388888888888889)],[np.float64(0.06805555555555555)],[1],[0],[0],[1.21297179999965],['Target'],14,0,14,0,21.375945399995544,,10,21.365160499997728,21.375945399995544,21.375945399995544,0.01966250000259606,22.578273099999933,[np.float64(-0.2388888888888889)],[np.float64(0.06805555555555555)],[1],[0],[0],[1.21297179999965],['Target'],FIVE,001,2025-10-03_09h09.09.054,Visual Search Experiment,,2025.1.1,60.5381844605742,2025-10-03 09h15.18.294614 +0530,
15,0,15,[np.float64(-0.32916666666666666)],[np.float64(0.14583333333333334)],[1],[0],[0],[1.1314836000019568],['Target'],15,0,15,0,22.608966200001305,,10,22.596732999998494,22.608966200001305,22.608966200001305,0.018345299999054987,23.728353999998944,[np.float64(-0.32916666666666666)],[np.float64(0.14583333333333334)],[1],[0],[0],[1.1314836000019568],['Target'],FIVE,001,2025-10-03_09h09.09.054,Visual Search Experiment,,2025.1.1,60.5381844605742,2025-10-03 09h15.18.294614 +0530,
16,0,16,[np.float64(-0.46944444444444444)],[np.float64(-0.10833333333333334)],[1],[0],[0],[1.147653200001514],['Target'],16,0,16,0,23.759084299999813,,10,23.747333299994352,23.759084299999813,23.759084299999813,0.01886170000216225,24.895131299999775,[np.float64(-0.46944444444444444)],[np.float64(-0.10833333333333334)],[1],[0],[0],[1.147653200001514],['Target'],FIVE,001,2025-10-03_09h09.09.054,Visual Search Experiment,,2025.1.1,60.5381844605742,2025-10-03 09h15.18.294614 +0530,
17,0,17,[np.float64(0.44583333333333336)],[np.float64(0.09027777777777778)],[1],[0],[0],[1.427903999996488],['Target'],17,0,17,0,24.943414000001212,,10,24.916716299994732,24.943414000001212,24.943414000001212,0.021461999996972736,26.34477070000139,[np.float64(0.44583333333333336)],[np.float64(0.09027777777777778)],[1],[0],[0],[1.427903999996488],['Target'],FIVE,001,2025-10-03_09h09.09.054,Visual Search Experiment,,2025.1.1,60.5381844605742,2025-10-03 09h15.18.294614 +0530,
18,0,18,[np.float64(-0.175)],[np.float64(-0.03888888888888889)],[1],[0],[0],[1.3243655999976909],['Target'],18,0,18,0,26.375545899994904,,5,26.35430159999669,26.375545899994904,26.375545899994904,0.0094189000010374,27.678804399998626,[np.float64(-0.175)],[np.float64(-0.03888888888888889)],[1],[0],[0],[1.3243655999976909],['Target'],FIVE,001,2025-10-03_09h09.09.054,Visual Search Experiment,,2025.1.1,60.5381844605742,2025-10-03 09h15.18.294614 +0530,
19,0,19,[np.float64(0.3861111111111111)],[np.float64(-0.08611111111111111)],[1],[0],[0],[1.4936158999989857],['Target'],19,0,19,0,27.72876769999857,,10,27.700369799997134,27.72876769999857,27.72876769999857,0.021486799996637274,29.194126899994444,[np.float64(0.3861111111111111)],[np.float64(-0.08611111111111111)],[1],[0],[0],[1.4936158999989857],['Target'],FIVE,001,2025-10-03_09h09.09.054,Visual Search Experiment,,2025.1.1,60.5381844605742,2025-10-03 09h15.18.294614 +0530,
20,0,20,[np.float64(0.08194444444444444)],[np.float64(-0.044444444444444446)],[1],[0],[0],[1.757337400005781],['Target'],20,0,20,0,29.225589099994977,,5,29.20414940000046,29.225589099994977,29.225589099994977,0.009920200005581137,30.961651799996616,[np.float64(0.08194444444444444)],[np.float64(-0.044444444444444446)],[1],[0],[0],[1.757337400005781],['Target'],FIVE,001,2025-10-03_09h09.09.054,Visual Search Experiment,,2025.1.1,60.5381844605742,2025-10-03 09h15.18.294614 +0530,
21,0,21,[np.float64(0.1875)],[np.float64(0.22916666666666666)],[1],[0],[0],[1.1396516999957385],['Target'],21,0,21,0,30.991748599997663,,5,30.97230059999856,30.991748599997663,30.991748599997663,0.010543999997025821,32.11215219999576,[np.float64(0.1875)],[np.float64(0.22916666666666666)],[1],[0],[0],[1.1396516999957385],['Target'],FIVE,001,2025-10-03_09h09.09.054,Visual Search Experiment,,2025.1.1,60.5381844605742,2025-10-03 09h15.18.294614 +0530,
22,0,22,[np.float64(0.35555555555555557)],[np.float64(0.4652777777777778)],[1],[0],[0],[1.5321494000017992],['Target'],22,0,22,0,32.1764017999958,,10,32.145743099994434,32.1764017999958,32.1764017999958,0.03345489999628626,33.67808239999431,[np.float64(0.35555555555555557)],[np.float64(0.4652777777777778)],[1],[0],[0],[1.5321494000017992],['Target'],FIVE,001,2025-10-03_09h09.09.054,Visual Search Experiment,,2025.1.1,60.5381844605742,2025-10-03 09h15.18.294614 +0530,
23,0,23,[np.float64(0.3111111111111111)],[np.float64(-0.3263888888888889)],[1],[0],[0],[1.761030200003006],['Target'],23,0,23,0,33.725328000000445,,10,33.69936199999938,33.725328000000445,33.725328000000445,0.021158800002012867,35.4605420999942,[np.float64(0.3111111111111111)],[np.float64(-0.3263888888888889)],[1],[0],[0],[1.761030200003006],['Target'],FIVE,001,2025-10-03_09h09.09.054,Visual Search Experiment,,2025.1.1,60.5381844605742,2025-10-03 09h15.18.294614 +0530,
24,0,24,[np.float64(0.48333333333333334)],[np.float64(0.1638888888888889)],[1],[0],[0],[1.3953824999989592],['Target'],24,0,24,0,35.51099969999632,,10,35.48099440000078,35.51099969999632,35.51099969999632,0.020349400001578033,36.87650969999959,[np.float64(0.48333333333333334)],[np.float64(0.1638888888888889)],[1],[0],[0],[1.3953824999989592],['Target'],FIVE,001,2025-10-03_09h09.09.054,Visual Search Experiment,,2025.1.1,60.5381844605742,2025-10-03 09h15.18.294614 +0530,
25,0,25,[np.float64(0.4597222222222222)],[np.float64(-0.39861111111111114)],[1],[0],[0],[2.203875400002289],['Target'],25,0,25,0,36.90782699999545,,10,36.89292629999545,36.90782699999545,36.90782699999545,0.016314399996190332,39.09700489999523,[np.float64(0.4597222222222222)],[np.float64(-0.39861111111111114)],[1],[0],[0],[2.203875400002289],['Target'],FIVE,001,2025-10-03_09h09.09.054,Visual Search Experiment,,2025.1.1,60.5381844605742,2025-10-03 09h15.18.294614 +0530,
26,0,26,[np.float64(-0.18194444444444444)],[np.float64(0.2875)],[1],[0],[0],[1.2486814000003505],['Target'],26,0,26,0,39.1422773000013,,5,39.116966699999466,39.1422773000013,39.1422773000013,0.019765299999562558,40.3659142999968,[np.float64(-0.18194444444444444)],[np.float64(0.2875)],[1],[0],[0],[1.2486814000003505],['Target'],FIVE,001,2025-10-03_09h09.09.054,Visual Search Experiment,,2025.1.1,60.5381844605742,2025-10-03 09h15.18.294614 +0530,
27,0,27,"[np.float64(0.2513888888888889), np.float64(0.25277777777777777), np.float64(0.26805555555555555)]","[np.float64(-0.4444444444444444), np.float64(-0.4444444444444444), np.float64(-0.4388888888888889)]","[1, 1, 1]","[0, 0, 0]","[0, 0, 0]","[1.6236290999950143, 2.393114599995897, 3.224914499995066]","[None, None, 'Target']",27,0,27,0,40.40871640000114,,5,40.38573799999722,40.40871640000114,40.40871640000114,0.019671899994136766,43.61082609999721,"[np.float64(0.2513888888888889), np.float64(0.25277777777777777), np.float64(0.26805555555555555)]","[np.float64(-0.4444444444444444), np.float64(-0.4444444444444444), np.float64(-0.4388888888888889)]","[1, 1, 1]","[0, 0, 0]","[0, 0, 0]","[1.6236290999950143, 2.393114599995897, 3.224914499995066]","[None, None, 'Target']",FIVE,001,2025-10-03_09h09.09.054,Visual Search Experiment,,2025.1.1,60.5381844605742,2025-10-03 09h15.18.294614 +0530,
28,0,28,[np.float64(0.027777777777777776)],[np.float64(0.475)],[1],[0],[0],[2.390664200000174],['Target'],28,0,28,0,43.65825770000083,,10,43.63568300000043,43.65825770000083,43.65825770000083,0.02471979999972973,46.0265103999991,[np.float64(0.027777777777777776)],[np.float64(0.475)],[1],[0],[0],[2.390664200000174],['Target'],FIVE,001,2025-10-03_09h09.09.054,Visual Search Experiment,,2025.1.1,60.5381844605742,2025-10-03 09h15.18.294614 +0530,
29,0,29,[np.float64(0.3597222222222222)],[np.float64(0.001388888888888889)],[1],[0],[0],[1.9753085999982432],['Target'],29,0,29,0,46.07494679999945,,10,46.05083509999531,46.07494679999945,46.07494679999945,0.024197700004151557,48.02629789999628,[np.float64(0.3597222222222222)],[np.float64(0.001388888888888889)],[1],[0],[0],[1.9753085999982432],['Target'],FIVE,001,2025-10-03_09h09.09.054,Visual Search Experiment,,2025.1.1,60.5381844605742,2025-10-03 09h15.18.294614 +0530,
30,0,30,[np.float64(0.3055555555555556)],[np.float64(0.08055555555555556)],[1],[0],[0],[1.1312072000000626],['Target'],30,0,30,0,48.056653599996935,,10,48.04527339999913,48.056653599996935,48.056653599996935,0.01886730000114767,49.17664539999532,[np.float64(0.3055555555555556)],[np.float64(0.08055555555555556)],[1],[0],[0],[1.1312072000000626],['Target'],FIVE,001,2025-10-03_09h09.09.054,Visual Search Experiment,,2025.1.1,60.5381844605742,2025-10-03 09h15.18.294614 +0530,
31,0,31,[np.float64(-0.20416666666666666)],[np.float64(-0.1625)],[1],[0],[0],[1.4531290000013541],['Target'],31,0,31,0,49.20655949999491,,5,49.18925450000097,49.20655949999491,49.20655949999491,0.012487799998780247,50.64264549999643,[np.float64(-0.20416666666666666)],[np.float64(-0.1625)],[1],[0],[0],[1.4531290000013541],['Target'],FIVE,001,2025-10-03_09h09.09.054,Visual Search Experiment,,2025.1.1,60.5381844605742,2025-10-03 09h15.18.294614 +0530,
32,0,32,[np.float64(0.3458333333333333)],[np.float64(0.34305555555555556)],[1],[0],[0],[1.5777705000000424],['Target'],32,0,32,0,50.69521839999652,,10,50.668534600001294,50.69521839999652,50.69521839999652,0.02570440000272356,52.246581899999,[np.float64(0.3458333333333333)],[np.float64(0.34305555555555556)],[1],[0],[0],[1.5777705000000424],['Target'],FIVE,001,2025-10-03_09h09.09.054,Visual Search Experiment,,2025.1.1,60.5381844605742,2025-10-03 09h15.18.294614 +0530,
33,0,33,[np.float64(0.07916666666666666)],[np.float64(0.1486111111111111)],[1],[0],[0],[1.507494700003008],['Target'],33,0,33,0,52.29114779999509,,5,52.2670552999989,52.29114779999509,52.29114779999509,0.020259600001736544,53.774748799994995,[np.float64(0.07916666666666666)],[np.float64(0.1486111111111111)],[1],[0],[0],[1.507494700003008],['Target'],FIVE,001,2025-10-03_09h09.09.054,Visual Search Experiment,,2025.1.1,60.5381844605742,2025-10-03 09h15.18.294614 +0530,
34,0,34,[np.float64(0.1527777777777778)],[np.float64(-0.2986111111111111)],[1],[0],[0],[1.5255850999965332],['Target'],34,0,34,0,53.80602329999965,,5,53.78302659999463,53.80602329999965,53.80602329999965,0.008186800005205441,55.30873679999786,[np.float64(0.1527777777777778)],[np.float64(-0.2986111111111111)],[1],[0],[0],[1.5255850999965332],['Target'],FIVE,001,2025-10-03_09h09.09.054,Visual Search Experiment,,2025.1.1,60.5381844605742,2025-10-03 09h15.18.294614 +0530,
35,0,35,[np.float64(0.21666666666666667)],[np.float64(-0.4652777777777778)],[1],[0],[0],[1.8589279000007082],['Target'],35,0,35,0,55.33917389999988,,5,55.31703610000113,55.33917389999988,55.33917389999988,0.008217800001148134,57.17609459999949,[np.float64(0.21666666666666667)],[np.float64(-0.4652777777777778)],[1],[0],[0],[1.8589279000007082],['Target'],FIVE,001,2025-10-03_09h09.09.054,Visual Search Experiment,,2025.1.1,60.5381844605742,2025-10-03 09h15.18.294614 +0530,
36,0,36,[np.float64(0.08194444444444444)],[np.float64(-0.0625)],[1],[0],[0],[1.1892615000033402],['Target'],36,0,36,0,57.2059780999989,,5,57.18550329999562,57.2059780999989,57.2059780999989,0.009316499999840744,58.37489629999618,[np.float64(0.08194444444444444)],[np.float64(-0.0625)],[1],[0],[0],[1.1892615000033402],['Target'],FIVE,001,2025-10-03_09h09.09.054,Visual Search Experiment,,2025.1.1,60.5381844605742,2025-10-03 09h15.18.294614 +0530,
37,0,37,[np.float64(0.15138888888888888)],[np.float64(0.10833333333333334)],[1],[0],[0],[1.2073307000027853],['Target'],37,0,37,0,58.406628299999284,,5,58.384147899996606,58.406628299999284,58.406628299999284,0.009168299999146257,59.59160829999746,[np.float64(0.15138888888888888)],[np.float64(0.10833333333333334)],[1],[0],[0],[1.2073307000027853],['Target'],FIVE,001,2025-10-03_09h09.09.054,Visual Search Experiment,,2025.1.1,60.5381844605742,2025-10-03 09h15.18.294614 +0530,
38,0,38,"[np.float64(-0.2569444444444444), np.float64(-0.25277777777777777)]","[np.float64(0.3472222222222222), np.float64(0.3263888888888889)]","[1, 1]","[0, 0]","[0, 0]","[1.3883466999977827, 2.1045881000027293]","[None, 'Target']",38,0,38,0,59.62253899999632,,5,59.602685899997596,59.62253899999632,59.62253899999632,0.011000399994372856,61.70744829999603,"[np.float64(-0.2569444444444444), np.float64(-0.25277777777777777)]","[np.float64(0.3472222222222222), np.float64(0.3263888888888889)]","[1, 1]","[0, 0]","[0, 0]","[1.3883466999977827, 2.1045881000027293]","[None, 'Target']",FIVE,001,2025-10-03_09h09.09.054,Visual Search Experiment,,2025.1.1,60.5381844605742,2025-10-03 09h15.18.294614 +0530,
39,0,39,[np.float64(-0.2125)],[np.float64(-0.33194444444444443)],[1],[0],[0],[1.809277000000293],['Target'],39,0,39,0,61.73871800000052,,5,61.71767379999801,61.73871800000052,61.73871800000052,0.010124899999937043,63.52712739999697,[np.float64(-0.2125)],[np.float64(-0.33194444444444443)],[1],[0],[0],[1.809277000000293],['Target'],FIVE,001,2025-10-03_09h09.09.054,Visual Search Experiment,,2025.1.1,60.5381844605742,2025-10-03 09h15.18.294614 +0530,
40,0,40,"[np.float64(-0.18194444444444444), np.float64(-0.16666666666666666)]","[np.float64(-0.35694444444444445), np.float64(-0.35)]","[1, 1]","[0, 0]","[0, 0]","[1.06782050000038, 1.868206300001475]","[None, 'Target']",40,0,40,0,63.55543680000119,,5,63.54336659999535,63.55543680000119,63.55543680000119,0.01609710000047926,65.41183059999457,"[np.float64(-0.18194444444444444), np.float64(-0.16666666666666666)]","[np.float64(-0.35694444444444445), np.float64(-0.35)]","[1, 1]","[0, 0]","[0, 0]","[1.06782050000038, 1.868206300001475]","[None, 'Target']",FIVE,001,2025-10-03_09h09.09.054,Visual Search Experiment,,2025.1.1,60.5381844605742,2025-10-03 09h15.18.294614 +0530,
41,0,41,[np.float64(0.4222222222222222)],[np.float64(-0.3486111111111111)],[1],[0],[0],[1.480966699993587],['Target'],41,0,41,0,65.4562431000013,,10,65.4428470999992,65.4562431000013,65.4562431000013,0.030839800005196594,66.92396749999898,[np.float64(0.4222222222222222)],[np.float64(-0.3486111111111111)],[1],[0],[0],[1.480966699993587],['Target'],FIVE,001,2025-10-03_09h09.09.054,Visual Search Experiment,,2025.1.1,60.5381844605742,2025-10-03 09h15.18.294614 +0530,
42,0,42,[np.float64(0.0625)],[np.float64(-0.4847222222222222)],[1],[0],[0],[2.2503907999998773],['Target'],42,0,42,0,66.95471929999621,,10,66.94111809999595,66.95471929999621,66.95471929999621,0.017049399997631554,69.19167000000016,[np.float64(0.0625)],[np.float64(-0.4847222222222222)],[1],[0],[0],[2.2503907999998773],['Target'],FIVE,001,2025-10-03_09h09.09.054,Visual Search Experiment,,2025.1.1,60.5381844605742,2025-10-03 09h15.18.294614 +0530,
43,0,43,[np.float64(0.043055555555555555)],[np.float64(-0.4791666666666667)],[1],[0],[0],[1.1044691999995848],['Target'],43,0,43,0,69.22151309999754,,5,69.20397819999926,69.22151309999754,69.22151309999754,0.012186300002213102,70.30861039999581,[np.float64(0.043055555555555555)],[np.float64(-0.4791666666666667)],[1],[0],[0],[1.1044691999995848],['Target'],FIVE,001,2025-10-03_09h09.09.054,Visual Search Experiment,,2025.1.1,60.5381844605742,2025-10-03 09h15.18.294614 +0530,
44,0,44,[np.float64(0.48333333333333334)],[np.float64(-0.46805555555555556)],[1],[0],[0],[1.1672899999975925],['Target'],44,0,44,0,70.35590869999578,,10,70.32944199999474,70.35590869999578,70.35590869999578,0.0207109999973909,71.49703189999855,[np.float64(0.48333333333333334)],[np.float64(-0.46805555555555556)],[1],[0],[0],[1.1672899999975925],['Target'],FIVE,001,2025-10-03_09h09.09.054,Visual Search Experiment,,2025.1.1,60.5381844605742,2025-10-03 09h15.18.294614 +0530,
45,0,45,[np.float64(0.07361111111111111)],[np.float64(0.28055555555555556)],[1],[0],[0],[2.4357870999956504],['Target'],45,0,45,0,71.53826019999542,,10,71.52118920000066,71.53826019999542,71.53826019999542,0.02384149999852525,73.95714659999794,[np.float64(0.07361111111111111)],[np.float64(0.28055555555555556)],[1],[0],[0],[2.4357870999956504],['Target'],FIVE,001,2025-10-03_09h09.09.054,Visual Search Experiment,,2025.1.1,60.5381844605742,2025-10-03 09h15.18.294614 +0530,
46,0,46,[np.float64(-0.30694444444444446)],[np.float64(0.24583333333333332)],[1],[0],[0],[1.1239156000010553],['Target'],46,0,46,0,73.98806459999469,,5,73.96762250000029,73.98806459999469,73.98806459999469,0.010359899999457411,75.09172219999891,[np.float64(-0.30694444444444446)],[np.float64(0.24583333333333332)],[1],[0],[0],[1.1239156000010553],['Target'],FIVE,001,2025-10-03_09h09.09.054,Visual Search Experiment,,2025.1.1,60.5381844605742,2025-10-03 09h15.18.294614 +0530,
47,0,47,[np.float64(-0.08194444444444444)],[np.float64(0.020833333333333332)],[1],[0],[0],[1.109588999999687],['Target'],47,0,47,0,75.13810449999437,,10,75.11392189999606,75.13810449999437,75.13810449999437,0.02207510000152979,76.22366160000092,[np.float64(-0.08194444444444444)],[np.float64(0.020833333333333332)],[1],[0],[0],[1.109588999999687],['Target'],FIVE,001,2025-10-03_09h09.09.054,Visual Search Experiment,,2025.1.1,60.5381844605742,2025-10-03 09h15.18.294614 +0530,
48,0,48,[np.float64(-0.23472222222222222)],[np.float64(-0.10277777777777777)],[1],[0],[0],[1.3304370999976527],['Target'],48,0,48,0,76.25404819999676,,10,76.2421491999994,76.25404819999676,76.25404819999676,0.018384799994237255,77.57272859999648,[np.float64(-0.23472222222222222)],[np.float64(-0.10277777777777777)],[1],[0],[0],[1.3304370999976527],['Target'],FIVE,001,2025-10-03_09h09.09.054,Visual Search Experiment,,2025.1.1,60.5381844605742,2025-10-03 09h15.18.294614 +0530,
49,0,49,[np.float64(0.22083333333333333)],[np.float64(0.25416666666666665)],[1],[0],[0],[1.405508199997712],['Target'],49,0,49,0,77.60455540000112,,5,77.58345220000047,77.60455540000112,77.60455540000112,0.010618299995257985,78.98910009999963,[np.float64(0.22083333333333333)],[np.float64(0.25416666666666665)],[1],[0],[0],[1.405508199997712],['Target'],FIVE,001,2025-10-03_09h09.09.054,Visual Search Experiment,,2025.1.1,60.5381844605742,2025-10-03 09h15.18.294614 +0530,
50,0,50,[np.float64(0.0875)],[np.float64(0.4847222222222222)],[1],[0],[0],[2.273202800002764],['Target'],50,0,50,0,79.02045099999668,,5,78.99881929999538,79.02045099999668,79.02045099999668,0.009637000002840068,81.27216480000061,[np.float64(0.0875)],[np.float64(0.4847222222222222)],[1],[0],[0],[2.273202800002764],['Target'],FIVE,001,2025-10-03_09h09.09.054,Visual Search Experiment,,2025.1.1,60.5381844605742,2025-10-03 09h15.18.294614 +0530,
51,0,51,"[np.float64(0.022222222222222223), np.float64(0.02638888888888889)]","[np.float64(0.20416666666666666), np.float64(0.1736111111111111)]","[1, 1]","[0, 0]","[0, 0]","[1.197472599997127, 1.8308755999969435]","[None, 'Target']",51,0,51,0,81.30335139999806,,10,81.29118000000017,81.30335139999806,81.30335139999806,0.01893489999929443,83.1222387999951,"[np.float64(0.022222222222222223), np.float64(0.02638888888888889)]","[np.float64(0.20416666666666666), np.float64(0.1736111111111111)]","[1, 1]","[0, 0]","[0, 0]","[1.197472599997127, 1.8308755999969435]","[None, 'Target']",FIVE,001,2025-10-03_09h09.09.054,Visual Search Experiment,,2025.1.1,60.5381844605742,2025-10-03 09h15.18.294614 +0530,
52,0,52,[np.float64(0.15)],[np.float64(-0.28055555555555556)],[1],[0],[0],[1.2723537999991095],['Target'],52,0,52,0,83.15318419999676,,5,83.13184239999828,83.15318419999676,83.15318419999676,0.009425800002645701,84.4043359999996,[np.float64(0.15)],[np.float64(-0.28055555555555556)],[1],[0],[0],[1.2723537999991095],['Target'],FIVE,001,2025-10-03_09h09.09.054,Visual Search Experiment,,2025.1.1,60.5381844605742,2025-10-03 09h15.18.294614 +0530,
53,0,53,[np.float64(0.4097222222222222)],[np.float64(0.125)],[1],[0],[0],[1.5373063999941223],['Target'],53,0,53,0,84.45474999999715,,10,84.43360549999488,84.45474999999715,84.45474999999715,0.02918669999780832,85.97108009999647,[np.float64(0.4097222222222222)],[np.float64(0.125)],[1],[0],[0],[1.5373063999941223],['Target'],FIVE,001,2025-10-03_09h09.09.054,Visual Search Experiment,,2025.1.1,60.5381844605742,2025-10-03 09h15.18.294614 +0530,
54,0,54,[np.float64(0.21666666666666667)],[np.float64(-0.28055555555555556)],[1],[0],[0],[1.4260492000030354],['Target'],54,0,54,0,86.00288290000026,,5,85.97957679999672,86.00288290000026,86.00288290000026,0.008399400001508184,87.4057627000002,[np.float64(0.21666666666666667)],[np.float64(-0.28055555555555556)],[1],[0],[0],[1.4260492000030354],['Target'],FIVE,001,2025-10-03_09h09.09.054,Visual Search Experiment,,2025.1.1,60.5381844605742,2025-10-03 09h15.18.294614 +0530,
55,0,55,[np.float64(-0.31666666666666665)],[np.float64(-0.1625)],[1],[0],[0],[1.3069508000044152],['Target'],55,0,55,0,87.43630029999622,,5,87.41485139999713,87.43630029999622,87.43630029999622,0.00900260000344133,88.7219741000008,[np.float64(-0.31666666666666665)],[np.float64(-0.1625)],[1],[0],[0],[1.3069508000044152],['Target'],FIVE,001,2025-10-03_09h09.09.054,Visual Search Experiment,,2025.1.1,60.5381844605742,2025-10-03 09h15.18.294614 +0530,
56,0,56,[np.float64(0.32222222222222224)],[np.float64(0.4625)],[1],[0],[0],[1.6830597000007401],['Target'],56,0,56,0,88.75288119999459,,10,88.73842259999947,88.75288119999459,88.75288119999459,0.0163678999961121,90.42165489999752,[np.float64(0.32222222222222224)],[np.float64(0.4625)],[1],[0],[0],[1.6830597000007401],['Target'],FIVE,001,2025-10-03_09h09.09.054,Visual Search Experiment,,2025.1.1,60.5381844605742,2025-10-03 09h15.18.294614 +0530,
57,0,57,[np.float64(0.30416666666666664)],[np.float64(0.33055555555555555)],[1],[0],[0],[1.093990000001213],['Target'],57,0,57,0,90.45247279999603,,5,90.43036980000034,90.45247279999603,90.45247279999603,0.008544399999664165,91.52459519999684,[np.float64(0.30416666666666664)],[np.float64(0.33055555555555555)],[1],[0],[0],[1.093990000001213],['Target'],FIVE,001,2025-10-03_09h09.09.054,Visual Search Experiment,,2025.1.1,60.5381844605742,2025-10-03 09h15.18.294614 +0530,
58,0,58,[np.float64(0.09305555555555556)],[np.float64(-0.475)],[1],[0],[0],[1.6623032000061357],['Target'],58,0,58,0,91.55304089999845,,5,91.54241090000141,91.55304089999845,91.55304089999845,0.01767910000489792,93.20490159999463,[np.float64(0.09305555555555556)],[np.float64(-0.475)],[1],[0],[0],[1.6623032000061357],['Target'],FIVE,001,2025-10-03_09h09.09.054,Visual Search Experiment,,2025.1.1,60.5381844605742,2025-10-03 09h15.18.294614 +0530,
59,0,59,[np.float64(-0.027777777777777776)],[np.float64(-0.41805555555555557)],[1],[0],[0],[1.4427279000010458],['Target'],59,0,59,0,93.23641309999948,,5,93.21349799999734,93.23641309999948,93.23641309999948,0.008516399997461122,94.6563954000012,[np.float64(-0.027777777777777776)],[np.float64(-0.41805555555555557)],[1],[0],[0],[1.4427279000010458],['Target'],FIVE,001,2025-10-03_09h09.09.054,Visual Search Experiment,,2025.1.1,60.5381844605742,2025-10-03 09h15.18.294614 +0530,
60,0,60,"[np.float64(0.04027777777777778), np.float64(0.04027777777777778)]","[np.float64(0.25972222222222224), np.float64(0.2361111111111111)]","[1, 1]","[0, 0]","[0, 0]","[2.1526857999997446, 2.9684465999962413]","[None, 'Target']",60,0,60,0,94.70350289999624,,10,94.68623590000061,94.70350289999624,94.70350289999624,0.029724399995757267,97.65487389999907,"[np.float64(0.04027777777777778), np.float64(0.04027777777777778)]","[np.float64(0.25972222222222224), np.float64(0.2361111111111111)]","[1, 1]","[0, 0]","[0, 0]","[2.1526857999997446, 2.9684465999962413]","[None, 'Target']",FIVE,001,2025-10-03_09h09.09.054,Visual Search Experiment,,2025.1.1,60.5381844605742,2025-10-03 09h15.18.294614 +0530,
61,0,61,[np.float64(0.45694444444444443)],[np.float64(-0.3125)],[1],[0],[0],[1.9853404999958002],['Target'],61,0,61,0,97.68587709999701,,5,97.66876010000124,97.68587709999701,97.68587709999701,0.013697399997909088,99.6542541999952,[np.float64(0.45694444444444443)],[np.float64(-0.3125)],[1],[0],[0],[1.9853404999958002],['Target'],FIVE,001,2025-10-03_09h09.09.054,Visual Search Experiment,,2025.1.1,60.5381844605742,2025-10-03 09h15.18.294614 +0530,
62,0,62,[np.float64(0.37777777777777777)],[np.float64(0.48055555555555557)],[1],[0],[0],[2.3732449999952223],['Target'],62,0,62,0,99.68526969999948,,5,99.66369169999962,99.68526969999948,99.68526969999948,0.009356599999591708,102.03706049999892,[np.float64(0.37777777777777777)],[np.float64(0.48055555555555557)],[1],[0],[0],[2.3732449999952223],['Target'],FIVE,001,2025-10-03_09h09.09.054,Visual Search Experiment,,2025.1.1,60.5381844605742,2025-10-03 09h15.18.294614 +0530,
63,0,63,[np.float64(-0.24583333333333332)],[np.float64(0.15416666666666667)],[1],[0],[0],[1.3249332000050345],['Target'],63,0,63,0,102.06811019999441,,5,102.04575919999479,102.06811019999441,102.06811019999441,0.008610799995949492,103.37082939999527,[np.float64(-0.24583333333333332)],[np.float64(0.15416666666666667)],[1],[0],[0],[1.3249332000050345],['Target'],FIVE,001,2025-10-03_09h09.09.054,Visual Search Experiment,,2025.1.1,60.5381844605742,2025-10-03 09h15.18.294614 +0530,
64,0,64,[np.float64(0.041666666666666664)],[np.float64(0.44166666666666665)],[1],[0],[0],[1.3979543000023114],['Target'],64,0,64,0,103.40118559999974,,10,103.38869129999512,103.40118559999974,103.40118559999974,0.017782299997634254,104.78677880000032,[np.float64(0.041666666666666664)],[np.float64(0.44166666666666665)],[1],[0],[0],[1.3979543000023114],['Target'],FIVE,001,2025-10-03_09h09.09.054,Visual Search Experiment,,2025.1.1,60.5381844605742,2025-10-03 09h15.18.294614 +0530,
65,0,65,[np.float64(-0.059722222222222225)],[np.float64(-0.20416666666666666)],[1],[0],[0],[1.7527295000036247],['Target'],65,0,65,0,104.81781829999818,,10,104.80546160000085,104.81781829999818,104.81781829999818,0.01858139999967534,106.55839510000078,[np.float64(-0.059722222222222225)],[np.float64(-0.20416666666666666)],[1],[0],[0],[1.7527295000036247],['Target'],FIVE,001,2025-10-03_09h09.09.054,Visual Search Experiment,,2025.1.1,60.5381844605742,2025-10-03 09h15.18.294614 +0530,
66,0,66,[np.float64(-0.4861111111111111)],[np.float64(-0.18055555555555555)],[1],[0],[0],[1.33217350000632],['Target'],66,0,66,0,106.58427739999752,,5,106.57044909999968,106.58427739999752,106.58427739999752,0.011909400003787596,107.90276629999425,[np.float64(-0.4861111111111111)],[np.float64(-0.18055555555555555)],[1],[0],[0],[1.33217350000632],['Target'],FIVE,001,2025-10-03_09h09.09.054,Visual Search Experiment,,2025.1.1,60.5381844605742,2025-10-03 09h15.18.294614 +0530,
67,0,67,[np.float64(0.18611111111111112)],[np.float64(0.13472222222222222)],[1],[0],[0],[1.2911008000010042],['Target'],67,0,67,0,107.93404059999739,,5,107.9118226999999,107.93404059999739,107.93404059999739,0.008975600001576822,109.20305369999551,[np.float64(0.18611111111111112)],[np.float64(0.13472222222222222)],[1],[0],[0],[1.2911008000010042],['Target'],FIVE,001,2025-10-03_09h09.09.054,Visual Search Experiment,,2025.1.1,60.5381844605742,2025-10-03 09h15.18.294614 +0530,
68,0,68,[np.float64(0.46805555555555556)],[np.float64(0.33194444444444443)],[1],[0],[0],[1.4320522999987588],['Target'],68,0,68,0,109.2339506999997,,10,109.22119279999606,109.2339506999997,109.2339506999997,0.018057900000712834,110.65340529999958,[np.float64(0.46805555555555556)],[np.float64(0.33194444444444443)],[1],[0],[0],[1.4320522999987588],['Target'],FIVE,001,2025-10-03_09h09.09.054,Visual Search Experiment,,2025.1.1,60.5381844605742,2025-10-03 09h15.18.294614 +0530,
69,0,69,[np.float64(-0.13055555555555556)],[np.float64(0.4)],[1],[0],[0],[1.4235394000061206],['Target'],69,0,69,0,110.68427320000046,,5,110.66256900000008,110.68427320000046,110.68427320000046,0.009053499998117331,112.08625599999505,[np.float64(-0.13055555555555556)],[np.float64(0.4)],[1],[0],[0],[1.4235394000061206],['Target'],FIVE,001,2025-10-03_09h09.09.054,Visual Search Experiment,,2025.1.1,60.5381844605742,2025-10-03 09h15.18.294614 +0530,
70,0,70,[np.float64(0.1763888888888889)],[np.float64(0.4638888888888889)],[1],[0],[0],[1.340361100003065],['Target'],70,0,70,0,112.11710469999525,,5,112.09582139999839,112.11710469999525,112.11710469999525,0.009481000000960194,113.4363153000013,[np.float64(0.1763888888888889)],[np.float64(0.4638888888888889)],[1],[0],[0],[1.340361100003065],['Target'],FIVE,001,2025-10-03_09h09.09.054,Visual Search Experiment,,2025.1.1,60.5381844605742,2025-10-03 09h15.18.294614 +0530,
71,0,71,[np.float64(0.04583333333333333)],[np.float64(-0.03194444444444444)],[1],[0],[0],[1.3580373000004329],['Target'],71,0,71,0,113.46685689999867,,5,113.44562629999564,113.46685689999867,113.46685689999867,0.009222699998645112,114.803794200001,[np.float64(0.04583333333333333)],[np.float64(-0.03194444444444444)],[1],[0],[0],[1.3580373000004329],['Target'],FIVE,001,2025-10-03_09h09.09.054,Visual Search Experiment,,2025.1.1,60.5381844605742,2025-10-03 09h15.18.294614 +0530,
72,0,72,[np.float64(-0.4986111111111111)],[np.float64(-0.059722222222222225)],[1],[0],[0],[1.5478423000022303],['Target'],72,0,72,0,114.8333449999991,,10,114.8220097999947,114.8333449999991,114.8333449999991,0.01813399999809917,116.37002940000093,[np.float64(-0.4986111111111111)],[np.float64(-0.059722222222222225)],[1],[0],[0],[1.5478423000022303],['Target'],FIVE,001,2025-10-03_09h09.09.054,Visual Search Experiment,,2025.1.1,60.5381844605742,2025-10-03 09h15.18.294614 +0530,
73,0,73,[np.float64(0.3597222222222222)],[np.float64(-0.34305555555555556)],[1],[0],[0],[1.9648644999979297],['Target'],73,0,73,0,116.3999926999968,,10,116.38793779999833,116.3999926999968,116.3999926999968,0.017779200003133155,118.3529853,[np.float64(0.3597222222222222)],[np.float64(-0.34305555555555556)],[1],[0],[0],[1.9648644999979297],['Target'],FIVE,001,2025-10-03_09h09.09.054,Visual Search Experiment,,2025.1.1,60.5381844605742,2025-10-03 09h15.18.294614 +0530,
74,0,74,[np.float64(-0.44583333333333336)],[np.float64(0.041666666666666664)],[1],[0],[0],[1.521776299996418],['Target'],74,0,74,0,118.38330119999591,,5,118.36487430000125,118.38330119999591,118.38330119999591,0.011739999994460959,119.88682580000022,[np.float64(-0.44583333333333336)],[np.float64(0.041666666666666664)],[1],[0],[0],[1.521776299996418],['Target'],FIVE,001,2025-10-03_09h09.09.054,Visual Search Experiment,,2025.1.1,60.5381844605742,2025-10-03 09h15.18.294614 +0530,
75,0,75,[np.float64(-0.42916666666666664)],[np.float64(0.18888888888888888)],[1],[0],[0],[1.491991799994139],['Target'],75,0,75,0,119.93448649999482,,10,119.90929419999884,119.93448649999482,119.93448649999482,0.022362700001394842,121.40146149999782,[np.float64(-0.42916666666666664)],[np.float64(0.18888888888888888)],[1],[0],[0],[1.491991799994139],['Target'],FIVE,001,2025-10-03_09h09.09.054,Visual Search Experiment,,2025.1.1,60.5381844605742,2025-10-03 09h15.18.294614 +0530,
76,0,76,[np.float64(-0.39166666666666666)],[np.float64(0.058333333333333334)],[1],[0],[0],[1.1590316000001621],['Target'],76,0,76,0,121.45059860000038,,10,121.42607349999889,121.45059860000038,121.45059860000038,0.02448990000266349,122.58525769999687,[np.float64(-0.39166666666666666)],[np.float64(0.058333333333333334)],[1],[0],[0],[1.1590316000001621],['Target'],FIVE,001,2025-10-03_09h09.09.054,Visual Search Experiment,,2025.1.1,60.5381844605742,2025-10-03 09h15.18.294614 +0530,
77,0,77,[np.float64(-0.1527777777777778)],[np.float64(0.39861111111111114)],[1],[0],[0],[1.415524899995944],['Target'],77,0,77,0,122.61627809999482,,10,122.60465449999901,122.61627809999482,122.61627809999482,0.019300899999507237,124.02032569999574,[np.float64(-0.1527777777777778)],[np.float64(0.39861111111111114)],[1],[0],[0],[1.415524899995944],['Target'],FIVE,001,2025-10-03_09h09.09.054,Visual Search Experiment,,2025.1.1,60.5381844605742,2025-10-03 09h15.18.294614 +0530,
78,0,78,[np.float64(-0.20972222222222223)],[np.float64(-0.3972222222222222)],[1],[0],[0],[1.9543029999986175],['Target'],78,0,78,0,124.06690199999866,,10,124.04701740000019,124.06690199999866,124.06690199999866,0.026603599995723926,126.00154349999502,[np.float64(-0.20972222222222223)],[np.float64(-0.3972222222222222)],[1],[0],[0],[1.9543029999986175],['Target'],FIVE,001,2025-10-03_09h09.09.054,Visual Search Experiment,,2025.1.1,60.5381844605742,2025-10-03 09h15.18.294614 +0530,
79,0,79,[np.float64(0.07361111111111111)],[np.float64(0.35555555555555557)],[1],[0],[0],[1.3458918999967864],['Target'],79,0,79,0,126.03215880000062,,10,126.02192659999855,126.03215880000062,126.03215880000062,0.020073299994692206,127.36794989999908,[np.float64(0.07361111111111111)],[np.float64(0.35555555555555557)],[1],[0],[0],[1.3458918999967864],['Target'],FIVE,001,2025-10-03_09h09.09.054,Visual Search Experiment,,2025.1.1,60.5381844605742,2025-10-03 09h15.18.294614 +0530,
80,0,80,"[np.float64(-0.3402777777777778), np.float64(-0.32222222222222224)]","[np.float64(-0.15138888888888888), np.float64(-0.175)]","[1, 1]","[0, 0]","[0, 0]","[1.6664856999996118, 2.4183371999970404]","[None, 'Target']",80,0,80,0,127.39895070000057,,10,127.38396089999878,127.39895070000057,127.39895070000057,0.015912199996819254,129.80252059999475,"[np.float64(-0.3402777777777778), np.float64(-0.32222222222222224)]","[np.float64(-0.15138888888888888), np.float64(-0.175)]","[1, 1]","[0, 0]","[0, 0]","[1.6664856999996118, 2.4183371999970404]","[None, 'Target']",FIVE,001,2025-10-03_09h09.09.054,Visual Search Experiment,,2025.1.1,60.5381844605742,2025-10-03 09h15.18.294614 +0530,
81,0,81,[np.float64(-0.14444444444444443)],[np.float64(-0.325)],[1],[0],[0],[1.8122000000003027],['Target'],81,0,81,0,129.8668503000008,,10,129.83967899999698,129.8668503000008,129.8668503000008,0.03693390000262298,131.65211540000018,[np.float64(-0.14444444444444443)],[np.float64(-0.325)],[1],[0],[0],[1.8122000000003027],['Target'],FIVE,001,2025-10-03_09h09.09.054,Visual Search Experiment,,2025.1.1,60.5381844605742,2025-10-03 09h15.18.294614 +0530,
82,0,82,[np.float64(0.32083333333333336)],[np.float64(-0.4486111111111111)],[1],[0],[0],[1.9839485999982571],['Target'],82,0,82,0,131.6838459999999,,5,131.66771969999536,131.6838459999999,131.6838459999999,0.015435699999216013,133.65182859999913,[np.float64(0.32083333333333336)],[np.float64(-0.4486111111111111)],[1],[0],[0],[1.9839485999982571],['Target'],FIVE,001,2025-10-03_09h09.09.054,Visual Search Experiment,,2025.1.1,60.5381844605742,2025-10-03 09h15.18.294614 +0530,
83,0,83,[np.float64(-0.011111111111111112)],[np.float64(0.08888888888888889)],[1],[0],[0],[1.3516947999960394],['Target'],83,0,83,0,133.6813742000013,,5,133.66534970000066,133.6813742000013,133.6813742000013,0.01344029999745544,135.0171776999996,[np.float64(-0.011111111111111112)],[np.float64(0.08888888888888889)],[1],[0],[0],[1.3516947999960394],['Target'],FIVE,001,2025-10-03_09h09.09.054,Visual Search Experiment,,2025.1.1,60.5381844605742,2025-10-03 09h15.18.294614 +0530,
84,0,84,[np.float64(0.09722222222222222)],[np.float64(-0.18194444444444444)],[1],[0],[0],[1.2511253999982728],['Target'],84,0,84,0,135.04825659999915,,10,135.0340694999977,135.04825659999915,135.04825659999915,0.016809500004455913,136.28535030000057,[np.float64(0.09722222222222222)],[np.float64(-0.18194444444444444)],[1],[0],[0],[1.2511253999982728],['Target'],FIVE,001,2025-10-03_09h09.09.054,Visual Search Experiment,,2025.1.1,60.5381844605742,2025-10-03 09h15.18.294614 +0530,
85,0,85,[np.float64(-0.21944444444444444)],[np.float64(0.44166666666666665)],[1],[0],[0],[1.8043143000031705],['Target'],85,0,85,0,136.31465089999983,,5,136.29631710000103,136.31465089999983,136.31465089999983,0.010843699994438794,138.1007929999978,[np.float64(-0.21944444444444444)],[np.float64(0.44166666666666665)],[1],[0],[0],[1.8043143000031705],['Target'],FIVE,001,2025-10-03_09h09.09.054,Visual Search Experiment,,2025.1.1,60.5381844605742,2025-10-03 09h15.18.294614 +0530,
86,0,86,[np.float64(0.33194444444444443)],[np.float64(-0.23472222222222222)],[1],[0],[0],[1.54052049999882],['Target'],86,0,86,0,138.13105319999886,,5,138.1097574000014,138.13105319999886,138.13105319999886,0.008871099998941645,139.65042959999846,[np.float64(0.33194444444444443)],[np.float64(-0.23472222222222222)],[1],[0],[0],[1.54052049999882],['Target'],FIVE,001,2025-10-03_09h09.09.054,Visual Search Experiment,,2025.1.1,60.5381844605742,2025-10-03 09h15.18.294614 +0530,
87,0,87,[np.float64(-0.2847222222222222)],[np.float64(-0.2722222222222222)],[1],[0],[0],[2.058331200001703],['Target'],87,0,87,0,139.68189770000026,,5,139.65920149999874,139.68189770000026,139.68189770000026,0.008692199997312855,141.71772390000115,[np.float64(-0.2847222222222222)],[np.float64(-0.2722222222222222)],[1],[0],[0],[2.058331200001703],['Target'],FIVE,001,2025-10-03_09h09.09.054,Visual Search Experiment,,2025.1.1,60.5381844605742,2025-10-03 09h15.18.294614 +0530,
88,0,88,[np.float64(0.3347222222222222)],[np.float64(0.07777777777777778)],[1],[0],[0],[1.3455685000008089],['Target'],88,0,88,0,141.78136119999544,,10,141.75415029999567,141.78136119999544,141.78136119999544,0.0362747000035597,143.09989169999608,[np.float64(0.3347222222222222)],[np.float64(0.07777777777777778)],[1],[0],[0],[1.3455685000008089],['Target'],FIVE,001,2025-10-03_09h09.09.054,Visual Search Experiment,,2025.1.1,60.5381844605742,2025-10-03 09h15.18.294614 +0530,
89,0,89,[np.float64(0.3402777777777778)],[np.float64(0.17916666666666667)],[1],[0],[0],[1.2586569999984931],['Target'],89,0,89,0,143.14824070000031,,10,143.12424919999467,143.14824070000031,143.14824070000031,0.02423809999891091,144.38310659999843,[np.float64(0.3402777777777778)],[np.float64(0.17916666666666667)],[1],[0],[0],[1.2586569999984931],['Target'],FIVE,001,2025-10-03_09h09.09.054,Visual Search Experiment,,2025.1.1,60.5381844605742,2025-10-03 09h15.18.294614 +0530,
90,0,90,[np.float64(-0.15138888888888888)],[np.float64(0.16527777777777777)],[1],[0],[0],[1.4606183000068995],['Target'],90,0,90,0,144.43152479999844,,10,144.40531419999752,144.43152479999844,144.43152479999844,0.02198309999948833,145.86609509999835,[np.float64(-0.15138888888888888)],[np.float64(0.16527777777777777)],[1],[0],[0],[1.4606183000068995],['Target'],FIVE,001,2025-10-03_09h09.09.054,Visual Search Experiment,,2025.1.1,60.5381844605742,2025-10-03 09h15.18.294614 +0530,
91,0,91,"[np.float64(-0.016666666666666666), np.float64(0.001388888888888889)]","[np.float64(0.06388888888888888), np.float64(0.059722222222222225)]","[1, 1]","[0, 0]","[0, 0]","[1.1924819000050775, 2.1080603000009432]","[None, 'Target']",91,0,91,0,145.9152357999992,,10,145.8909663000013,145.9152357999992,145.9152357999992,0.024754199999733828,147.99921180000092,"[np.float64(-0.016666666666666666), np.float64(0.001388888888888889)]","[np.float64(0.06388888888888888), np.float64(0.059722222222222225)]","[1, 1]","[0, 0]","[0, 0]","[1.1924819000050775, 2.1080603000009432]","[None, 'Target']",FIVE,001,2025-10-03_09h09.09.054,Visual Search Experiment,,2025.1.1,60.5381844605742,2025-10-03 09h15.18.294614 +0530,
92,0,92,[np.float64(-0.3055555555555556)],[np.float64(0.44722222222222224)],[1],[0],[0],[1.9899734999999055],['Target'],92,0,92,0,148.03035359999922,,5,148.00943109999935,148.03035359999922,148.03035359999922,0.009971699997549877,149.999562099998,[np.float64(-0.3055555555555556)],[np.float64(0.44722222222222224)],[1],[0],[0],[1.9899734999999055],['Target'],FIVE,001,2025-10-03_09h09.09.054,Visual Search Experiment,,2025.1.1,60.5381844605742,2025-10-03 09h15.18.294614 +0530,
93,0,93,[np.float64(-0.3472222222222222)],[np.float64(-0.14027777777777778)],[1],[0],[0],[1.2592630999934045],['Target'],93,0,93,0,150.02998889999435,,5,150.01151140000002,150.02998889999435,150.02998889999435,0.01186049999523675,151.27105329999904,[np.float64(-0.3472222222222222)],[np.float64(-0.14027777777777778)],[1],[0],[0],[1.2592630999934045],['Target'],FIVE,001,2025-10-03_09h09.09.054,Visual Search Experiment,,2025.1.1,60.5381844605742,2025-10-03 09h15.18.294614 +0530,
94,0,94,[np.float64(-0.24027777777777778)],[np.float64(0.030555555555555555)],[1],[0],[0],[1.4051191000035033],['Target'],94,0,94,0,151.31425630000012,,10,151.2934266999946,151.31425630000012,151.31425630000012,0.022182300002896227,152.69868080000015,[np.float64(-0.24027777777777778)],[np.float64(0.030555555555555555)],[1],[0],[0],[1.4051191000035033],['Target'],FIVE,001,2025-10-03_09h09.09.054,Visual Search Experiment,,2025.1.1,60.5381844605742,2025-10-03 09h15.18.294614 +0530,
95,0,95,[np.float64(0.21805555555555556)],[np.float64(-0.075)],[1],[0],[0],[1.3585938999967766],['Target'],95,0,95,0,152.72970799999894,,5,152.7068489999947,152.72970799999894,152.72970799999894,0.008050899996305816,154.06556999999884,[np.float64(0.21805555555555556)],[np.float64(-0.075)],[1],[0],[0],[1.3585938999967766],['Target'],FIVE,001,2025-10-03_09h09.09.054,Visual Search Experiment,,2025.1.1,60.5381844605742,2025-10-03 09h15.18.294614 +0530,
96,0,96,[np.float64(0.18055555555555555)],[np.float64(-0.10277777777777777)],[1],[0],[0],[1.1405988999977126],['Target'],96,0,96,0,154.09666689999722,,5,154.07462649999798,154.09666689999722,154.09666689999722,0.008975999997346662,155.21536080000078,[np.float64(0.18055555555555555)],[np.float64(-0.10277777777777777)],[1],[0],[0],[1.1405988999977126],['Target'],FIVE,001,2025-10-03_09h09.09.054,Visual Search Experiment,,2025.1.1,60.5381844605742,2025-10-03 09h15.18.294614 +0530,
97,0,97,[np.float64(-0.3472222222222222)],[np.float64(-0.4777777777777778)],[1],[0],[0],[1.5064877000040724],['Target'],97,0,97,0,155.24628799999482,,5,155.22474599999987,155.24628799999482,155.24628799999482,0.00931220000347821,156.73137459999998,[np.float64(-0.3472222222222222)],[np.float64(-0.4777777777777778)],[1],[0],[0],[1.5064877000040724],['Target'],FIVE,001,2025-10-03_09h09.09.054,Visual Search Experiment,,2025.1.1,60.5381844605742,2025-10-03 09h15.18.294614 +0530,
98,0,98,"[np.float64(0.33055555555555555), np.float64(0.3527777777777778)]","[np.float64(-0.2), np.float64(-0.2013888888888889)]","[1, 1]","[0, 0]","[0, 0]","[1.5578786000041873, 2.259277600001951]","[None, 'Target']",98,0,98,0,156.76223059999757,,5,156.73949659999926,156.76223059999757,156.76223059999757,0.008041500004765112,158.99895649999962,"[np.float64(0.33055555555555555), np.float64(0.3527777777777778)]","[np.float64(-0.2), np.float64(-0.2013888888888889)]","[1, 1]","[0, 0]","[0, 0]","[1.5578786000041873, 2.259277600001951]","[None, 'Target']",FIVE,001,2025-10-03_09h09.09.054,Visual Search Experiment,,2025.1.1,60.5381844605742,2025-10-03 09h15.18.294614 +0530,
99,0,99,[np.float64(0.32916666666666666)],[np.float64(0.3402777777777778)],[1],[0],[0],[1.759235700003046],['Target'],99,0,99,0,159.04667109999718,,10,159.0246268999981,159.04667109999718,159.04667109999718,0.02550630000041565,160.78400979999424,[np.float64(0.32916666666666666)],[np.float64(0.3402777777777778)],[1],[0],[0],[1.759235700003046],['Target'],FIVE,001,2025-10-03_09h09.09.054,Visual Search Experiment,,2025.1.1,60.5381844605742,2025-10-03 09h15.18.294614 +0530,
100,0,100,[np.float64(0.36944444444444446)],[np.float64(-0.48055555555555557)],[1],[0],[0],[1.9451853999999003],['Target'],100,0,100,0,160.8129245999953,,10,160.80212589999428,160.8129245999953,160.8129245999953,0.01801119999436196,162.74744709999504,[np.float64(0.36944444444444446)],[np.float64(-0.48055555555555557)],[1],[0],[0],[1.9451853999999003],['Target'],FIVE,001,2025-10-03_09h09.09.054,Visual Search Experiment,,2025.1.1,60.5381844605742,2025-10-03 09h15.18.294614 +0530,
101,0,101,[np.float64(-0.4152777777777778)],[np.float64(-0.1486111111111111)],[1],[0],[0],[1.5470412000067881],['Target'],101,0,101,0,162.77874760000122,,10,162.76743759999954,162.77874760000122,162.77874760000122,0.019894000004569534,164.31469169999764,[np.float64(-0.4152777777777778)],[np.float64(-0.1486111111111111)],[1],[0],[0],[1.5470412000067881],['Target'],FIVE,001,2025-10-03_09h09.09.054,Visual Search Experiment,,2025.1.1,60.5381844605742,2025-10-03 09h15.18.294614 +0530,
102,0,102,[np.float64(0.3958333333333333)],[np.float64(-0.03194444444444444)],[1],[0],[0],[1.3742708999998285],['Target'],102,0,102,0,164.3630486999973,,10,164.3405208999975,164.3630486999973,164.3630486999973,0.025604099995689467,165.71495149999828,[np.float64(0.3958333333333333)],[np.float64(-0.03194444444444444)],[1],[0],[0],[1.3742708999998285],['Target'],FIVE,001,2025-10-03_09h09.09.054,Visual Search Experiment,,2025.1.1,60.5381844605742,2025-10-03 09h15.18.294614 +0530,
103,0,103,[np.float64(-0.2875)],[np.float64(0.48333333333333334)],[1],[0],[0],[1.8920400999995763],['Target'],103,0,103,0,165.76251369999954,,10,165.73834849999548,165.76251369999954,165.76251369999954,0.02325610000116285,167.6305241000009,[np.float64(-0.2875)],[np.float64(0.48333333333333334)],[1],[0],[0],[1.8920400999995763],['Target'],FIVE,001,2025-10-03_09h09.09.054,Visual Search Experiment,,2025.1.1,60.5381844605742,2025-10-03 09h15.18.294614 +0530,
104,0,104,[np.float64(0.3972222222222222)],[np.float64(-0.2861111111111111)],[1],[0],[0],[1.6479767999990145],['Target'],104,0,104,0,167.66167280000082,,10,167.64909310000075,167.66167280000082,167.66167280000082,0.018472000003384892,169.29720899999666,[np.float64(0.3972222222222222)],[np.float64(-0.2861111111111111)],[1],[0],[0],[1.6479767999990145],['Target'],FIVE,001,2025-10-03_09h09.09.054,Visual Search Experiment,,2025.1.1,60.5381844605742,2025-10-03 09h15.18.294614 +0530,
105,0,105,[np.float64(-0.3236111111111111)],[np.float64(0.41388888888888886)],[1],[0],[0],[1.2910023000004003],['Target'],105,0,105,0,169.32793120000133,,5,169.30539909999789,169.32793120000133,169.32793120000133,0.00808849999884842,170.59657779999543,[np.float64(-0.3236111111111111)],[np.float64(0.41388888888888886)],[1],[0],[0],[1.2910023000004003],['Target'],FIVE,001,2025-10-03_09h09.09.054,Visual Search Experiment,,2025.1.1,60.5381844605742,2025-10-03 09h15.18.294614 +0530,
106,0,106,[np.float64(0.059722222222222225)],[np.float64(-0.12638888888888888)],[1],[0],[0],[1.5503443999987212],['Target'],106,0,106,0,170.62798929999553,,10,170.6132845999964,170.62798929999553,170.62798929999553,0.01657569999952102,172.16375929999776,[np.float64(0.059722222222222225)],[np.float64(-0.12638888888888888)],[1],[0],[0],[1.5503443999987212],['Target'],FIVE,001,2025-10-03_09h09.09.054,Visual Search Experiment,,2025.1.1,60.5381844605742,2025-10-03 09h15.18.294614 +0530,
107,0,107,[np.float64(-0.3013888888888889)],[np.float64(0.13333333333333333)],[1],[0],[0],[1.2572958999953698],['Target'],107,0,107,0,172.19467349999468,,5,172.17218489999505,172.19467349999468,172.19467349999468,0.008322599998791702,173.42961229999491,[np.float64(-0.3013888888888889)],[np.float64(0.13333333333333333)],[1],[0],[0],[1.2572958999953698],['Target'],FIVE,001,2025-10-03_09h09.09.054,Visual Search Experiment,,2025.1.1,60.5381844605742,2025-10-03 09h15.18.294614 +0530,
108,0,108,[np.float64(-0.2263888888888889)],[np.float64(-0.3527777777777778)],[1],[0],[0],[1.3308987999989768],['Target'],108,0,108,0,173.46098039999924,,10,173.44898100000137,173.46098039999924,173.46098039999924,0.01929039999959059,174.780013399999,[np.float64(-0.2263888888888889)],[np.float64(-0.3527777777777778)],[1],[0],[0],[1.3308987999989768],['Target'],FIVE,001,2025-10-03_09h09.09.054,Visual Search Experiment,,2025.1.1,60.5381844605742,2025-10-03 09h15.18.294614 +0530,
109,0,109,[np.float64(-0.3486111111111111)],[np.float64(0.3194444444444444)],[1],[0],[0],[1.348561200000404],['Target'],109,0,109,0,174.8115775999977,,10,174.7986477999948,174.8115775999977,174.8115775999977,0.018525100000260863,176.147366899997,[np.float64(-0.3486111111111111)],[np.float64(0.3194444444444444)],[1],[0],[0],[1.348561200000404],['Target'],FIVE,001,2025-10-03_09h09.09.054,Visual Search Experiment,,2025.1.1,60.5381844605742,2025-10-03 09h15.18.294614 +0530,
110,0,110,[np.float64(-0.06388888888888888)],[np.float64(0.2388888888888889)],[1],[0],[0],[1.127508300000045],['Target'],110,0,110,0,176.1950966000004,,10,176.16923719999613,176.1950966000004,176.1950966000004,0.021740799995313864,177.29690879999544,[np.float64(-0.06388888888888888)],[np.float64(0.2388888888888889)],[1],[0],[0],[1.127508300000045],['Target'],FIVE,001,2025-10-03_09h09.09.054,Visual Search Experiment,,2025.1.1,60.5381844605742,2025-10-03 09h15.18.294614 +0530,
111,0,111,[np.float64(0.002777777777777778)],[np.float64(0.1763888888888889)],[1],[0],[0],[1.0572907000023406],['Target'],111,0,111,0,177.3273107999994,,5,177.3086368000004,177.3273107999994,177.3273107999994,0.011628199994447641,178.36613319999742,[np.float64(0.002777777777777778)],[np.float64(0.1763888888888889)],[1],[0],[0],[1.0572907000023406],['Target'],FIVE,001,2025-10-03_09h09.09.054,Visual Search Experiment,,2025.1.1,60.5381844605742,2025-10-03 09h15.18.294614 +0530,
112,0,112,"[np.float64(-0.06388888888888888), np.float64(-0.04583333333333333)]","[np.float64(0.33055555555555555), np.float64(0.3527777777777778)]","[1, 1]","[0, 0]","[0, 0]","[1.035417699997197, 1.8376729000010528]","[None, 'Target']",112,0,112,0,178.41174599999795,,10,178.39456739999878,178.41174599999795,178.41174599999795,0.02827419999812264,180.23243749999529,"[np.float64(-0.06388888888888888), np.float64(-0.04583333333333333)]","[np.float64(0.33055555555555555), np.float64(0.3527777777777778)]","[1, 1]","[0, 0]","[0, 0]","[1.035417699997197, 1.8376729000010528]","[None, 'Target']",FIVE,001,2025-10-03_09h09.09.054,Visual Search Experiment,,2025.1.1,60.5381844605742,2025-10-03 09h15.18.294614 +0530,
113,0,113,[np.float64(-0.029166666666666667)],[np.float64(-0.24583333333333332)],[1],[0],[0],[2.322885800000222],['Target'],113,0,113,0,180.29501909999817,,10,180.27304889999505,180.29501909999817,180.29501909999817,0.0403883000035421,182.59613529999478,[np.float64(-0.029166666666666667)],[np.float64(-0.24583333333333332)],[1],[0],[0],[2.322885800000222],['Target'],FIVE,001,2025-10-03_09h09.09.054,Visual Search Experiment,,2025.1.1,60.5381844605742,2025-10-03 09h15.18.294614 +0530,
114,0,114,[np.float64(0.1597222222222222)],[np.float64(0.46944444444444444)],[1],[0],[0],[2.190675400001055],['Target'],114,0,114,0,182.62705569999525,,5,182.6043475999977,182.62705569999525,182.62705569999525,0.008111300005111843,184.7952032999965,[np.float64(0.1597222222222222)],[np.float64(0.46944444444444444)],[1],[0],[0],[2.190675400001055],['Target'],FIVE,001,2025-10-03_09h09.09.054,Visual Search Experiment,,2025.1.1,60.5381844605742,2025-10-03 09h15.18.294614 +0530,
115,0,115,[np.float64(0.3333333333333333)],[np.float64(0.3902777777777778)],[1],[0],[0],[1.0770892000000458],['Target'],115,0,115,0,184.8441773999948,,10,184.81877829999576,184.8441773999948,184.8441773999948,0.023436499999661464,185.8960517999949,[np.float64(0.3333333333333333)],[np.float64(0.3902777777777778)],[1],[0],[0],[1.0770892000000458],['Target'],FIVE,001,2025-10-03_09h09.09.054,Visual Search Experiment,,2025.1.1,60.5381844605742,2025-10-03 09h15.18.294614 +0530,
116,0,116,"[np.float64(0.11805555555555555), np.float64(0.09861111111111111)]","[np.float64(-0.1597222222222222), np.float64(-0.15416666666666667)]","[1, 1]","[0, 0]","[0, 0]","[2.010651800002961, 2.8285052999999607]","[None, 'Target']",116,0,116,0,185.9439027999979,,10,185.9195927999972,185.9439027999979,185.9439027999979,0.023431000001437496,188.7483329999959,"[np.float64(0.11805555555555555), np.float64(0.09861111111111111)]","[np.float64(-0.1597222222222222), np.float64(-0.15416666666666667)]","[1, 1]","[0, 0]","[0, 0]","[2.010651800002961, 2.8285052999999607]","[None, 'Target']",FIVE,001,2025-10-03_09h09.09.054,Visual Search Experiment,,2025.1.1,60.5381844605742,2025-10-03 09h15.18.294614 +0530,
117,0,117,[np.float64(-0.15)],[np.float64(-0.06944444444444445)],[1],[0],[0],[1.1750156999987666],['Target'],117,0,117,0,188.79479400000127,,5,188.76987609999924,188.79479400000127,188.79479400000127,0.021344399996451102,189.94512349999422,[np.float64(-0.15)],[np.float64(-0.06944444444444445)],[1],[0],[0],[1.1750156999987666],['Target'],FIVE,001,2025-10-03_09h09.09.054,Visual Search Experiment,,2025.1.1,60.5381844605742,2025-10-03 09h15.18.294614 +0530,
118,0,118,[np.float64(-0.13333333333333333)],[np.float64(-0.35555555555555557)],[1],[0],[0],[1.1972488999963389],['Target'],118,0,118,0,189.97686989999784,,10,189.9651173999955,189.97686989999784,189.97686989999784,0.0199129999964498,191.16250049999508,[np.float64(-0.13333333333333333)],[np.float64(-0.35555555555555557)],[1],[0],[0],[1.1972488999963389],['Target'],FIVE,001,2025-10-03_09h09.09.054,Visual Search Experiment,,2025.1.1,60.5381844605742,2025-10-03 09h15.18.294614 +0530,
119,0,119,[np.float64(-0.2222222222222222)],[np.float64(-0.3333333333333333)],[1],[0],[0],[0.989403499996115],['Target'],119,0,119,0,191.19244030000118,,5,191.1718122999955,191.19244030000118,191.19244030000118,0.009214099998644087,192.16136659999756,[np.float64(-0.2222222222222222)],[np.float64(-0.3333333333333333)],[1],[0],[0],[0.989403499996115],['Target'],FIVE,001,2025-10-03_09h09.09.054,Visual Search Experiment,,2025.1.1,60.5381844605742,2025-10-03 09h15.18.294614 +0530,
120,0,120,"[np.float64(0.3875), np.float64(0.3888888888888889)]","[np.float64(-0.10972222222222222), np.float64(-0.11666666666666667)]","[1, 1]","[0, 0]","[0, 0]","[1.780027799999516, 3.0142935999974725]","[None, 'Target']",120,0,120,0,192.19243149999966,,10,192.18023189999803,192.19243149999966,192.19243149999966,0.018784099993354175,195.19465769999806,"[np.float64(0.3875), np.float64(0.3888888888888889)]","[np.float64(-0.10972222222222222), np.float64(-0.11666666666666667)]","[1, 1]","[0, 0]","[0, 0]","[1.780027799999516, 3.0142935999974725]","[None, 'Target']",FIVE,001,2025-10-03_09h09.09.054,Visual Search Experiment,,2025.1.1,60.5381844605742,2025-10-03 09h15.18.294614 +0530,
121,0,121,[np.float64(-0.17083333333333334)],[np.float64(0.075)],[1],[0],[0],[1.0786282999979449],['Target'],121,0,121,0,195.22598429999925,,5,195.2031885999968,195.22598429999925,195.22598429999925,0.008416300006501842,196.28200629999628,[np.float64(-0.17083333333333334)],[np.float64(0.075)],[1],[0],[0],[1.0786282999979449],['Target'],FIVE,001,2025-10-03_09h09.09.054,Visual Search Experiment,,2025.1.1,60.5381844605742,2025-10-03 09h15.18.294614 +0530,
122,0,122,"[np.float64(-0.17083333333333334), np.float64(0.009722222222222222), np.float64(-0.016666666666666666)]","[np.float64(0.075), np.float64(-0.24583333333333332), np.float64(-0.21805555555555556)]","[1, 1, 1]","[0, 0, 0]","[0, 0, 0]","[0.22230069999932311, 1.3984434999947553, 2.2464813999977196]","[None, None, 'Target']",122,0,122,0,196.32628219999606,,10,196.31311060000007,196.32628219999606,196.32628219999606,0.030932599998777732,198.55977020000137,"[np.float64(-0.17083333333333334), np.float64(0.009722222222222222), np.float64(-0.016666666666666666)]","[np.float64(0.075), np.float64(-0.24583333333333332), np.float64(-0.21805555555555556)]","[1, 1, 1]","[0, 0, 0]","[0, 0, 0]","[0.22230069999932311, 1.3984434999947553, 2.2464813999977196]","[None, None, 'Target']",FIVE,001,2025-10-03_09h09.09.054,Visual Search Experiment,,2025.1.1,60.5381844605742,2025-10-03 09h15.18.294614 +0530,
123,0,123,[np.float64(0.2722222222222222)],[np.float64(-0.1527777777777778)],[1],[0],[0],[1.3309789999984787],['Target'],123,0,123,0,198.59511809999822,,5,198.5806178999992,198.59511809999822,198.59511809999822,0.020601500000339,199.91178850000142,[np.float64(0.2722222222222222)],[np.float64(-0.1527777777777778)],[1],[0],[0],[1.3309789999984787],['Target'],FIVE,001,2025-10-03_09h09.09.054,Visual Search Experiment,,2025.1.1,60.5381844605742,2025-10-03 09h15.18.294614 +0530,
124,0,124,[np.float64(0.26805555555555555)],[np.float64(-0.3819444444444444)],[1],[0],[0],[1.3360066000022925],['Target'],124,0,124,0,199.94188479999866,,5,199.92388149999897,199.94188479999866,199.94188479999866,0.011998800000583287,201.2600439999951,[np.float64(0.26805555555555555)],[np.float64(-0.3819444444444444)],[1],[0],[0],[1.3360066000022925],['Target'],FIVE,001,2025-10-03_09h09.09.054,Visual Search Experiment,,2025.1.1,60.5381844605742,2025-10-03 09h15.18.294614 +0530,
125,0,125,[np.float64(-0.11666666666666667)],[np.float64(0.4375)],[1],[0],[0],[2.4164218999940204],['Target'],125,0,125,0,201.29215419999673,,10,201.27666459999455,201.29215419999673,201.29215419999673,0.01653529999748571,203.69325099999696,[np.float64(-0.11666666666666667)],[np.float64(0.4375)],[1],[0],[0],[2.4164218999940204],['Target'],FIVE,001,2025-10-03_09h09.09.054,Visual Search Experiment,,2025.1.1,60.5381844605742,2025-10-03 09h15.18.294614 +0530,
126,0,126,[np.float64(0.10694444444444444)],[np.float64(-0.3861111111111111)],[1],[0],[0],[1.815377200000512],['Target'],126,0,126,0,203.74353739999788,,10,203.71741479999764,203.74353739999788,203.74353739999788,0.024007200001506135,205.5329681000003,[np.float64(0.10694444444444444)],[np.float64(-0.3861111111111111)],[1],[0],[0],[1.815377200000512],['Target'],FIVE,001,2025-10-03_09h09.09.054,Visual Search Experiment,,2025.1.1,60.5381844605742,2025-10-03 09h15.18.294614 +0530,
127,0,127,[np.float64(0.38472222222222224)],[np.float64(-0.425)],[1],[0],[0],[1.3332536000016262],['Target'],127,0,127,0,205.5585146999947,,5,205.54320359999838,205.5585146999947,205.5585146999947,0.010054400001536123,206.87659580000036,[np.float64(0.38472222222222224)],[np.float64(-0.425)],[1],[0],[0],[1.3332536000016262],['Target'],FIVE,001,2025-10-03_09h09.09.054,Visual Search Experiment,,2025.1.1,60.5381844605742,2025-10-03 09h15.18.294614 +0530,
128,0,128,[np.float64(0.30694444444444446)],[np.float64(0.16805555555555557)],[1],[0],[0],[1.6579910999935237],['Target'],128,0,128,0,206.90721469999698,,5,206.8858140999946,206.90721469999698,206.90721469999698,0.009139800000411924,208.5439703000011,[np.float64(0.30694444444444446)],[np.float64(0.16805555555555557)],[1],[0],[0],[1.6579910999935237],['Target'],FIVE,001,2025-10-03_09h09.09.054,Visual Search Experiment,,2025.1.1,60.5381844605742,2025-10-03 09h15.18.294614 +0530,
129,0,129,[np.float64(0.16805555555555557)],[np.float64(-0.14583333333333334)],[1],[0],[0],[1.4319289999984903],['Target'],129,0,129,0,208.57455779999873,,10,208.56126769999537,208.57455779999873,208.57455779999873,0.017204099996888544,209.99338200000057,[np.float64(0.16805555555555557)],[np.float64(-0.14583333333333334)],[1],[0],[0],[1.4319289999984903],['Target'],FIVE,001,2025-10-03_09h09.09.054,Visual Search Experiment,,2025.1.1,60.5381844605742,2025-10-03 09h15.18.294614 +0530,
130,0,130,[np.float64(0.4486111111111111)],[np.float64(0.43333333333333335)],[1],[0],[0],[1.6216466999976547],['Target'],130,0,130,0,210.02459789999557,,5,210.00476329999947,210.02459789999557,210.02459789999557,0.01125319999846397,211.626714799997,[np.float64(0.4486111111111111)],[np.float64(0.43333333333333335)],[1],[0],[0],[1.6216466999976547],['Target'],FIVE,001,2025-10-03_09h09.09.054,Visual Search Experiment,,2025.1.1,60.5381844605742,2025-10-03 09h15.18.294614 +0530,
131,0,131,[np.float64(0.2263888888888889)],[np.float64(0.3861111111111111)],[1],[0],[0],[1.637636699997529],['Target'],131,0,131,0,211.65750719999778,,5,211.64066459999594,211.65750719999778,211.65750719999778,0.013685199999599718,213.2784698999967,[np.float64(0.2263888888888889)],[np.float64(0.3861111111111111)],[1],[0],[0],[1.637636699997529],['Target'],FIVE,001,2025-10-03_09h09.09.054,Visual Search Experiment,,2025.1.1,60.5381844605742,2025-10-03 09h15.18.294614 +0530,
132,0,132,[np.float64(0.1625)],[np.float64(0.32916666666666666)],[1],[0],[0],[1.0746356999952695],['Target'],132,0,132,0,213.32452080000076,,10,213.3011492000005,213.32452080000076,213.32452080000076,0.022585200000321493,214.3759357999952,[np.float64(0.1625)],[np.float64(0.32916666666666666)],[1],[0],[0],[1.0746356999952695],['Target'],FIVE,001,2025-10-03_09h09.09.054,Visual Search Experiment,,2025.1.1,60.5381844605742,2025-10-03 09h15.18.294614 +0530,
133,0,133,[np.float64(0.45)],[np.float64(-0.4375)],[1],[0],[0],[2.0244813000026625],['Target'],133,0,133,0,214.40720989999681,,5,214.38481209999736,214.40720989999681,214.40720989999681,0.008773800000199117,216.4094191999975,[np.float64(0.45)],[np.float64(-0.4375)],[1],[0],[0],[2.0244813000026625],['Target'],FIVE,001,2025-10-03_09h09.09.054,Visual Search Experiment,,2025.1.1,60.5381844605742,2025-10-03 09h15.18.294614 +0530,
134,0,134,[np.float64(-0.3527777777777778)],[np.float64(-0.13333333333333333)],[1],[0],[0],[1.7098243000000366],['Target'],134,0,134,0,216.4447693999973,,5,216.41913909999857,216.4447693999973,216.4447693999973,0.009640099997341167,218.12922609999805,[np.float64(-0.3527777777777778)],[np.float64(-0.13333333333333333)],[1],[0],[0],[1.7098243000000366],['Target'],FIVE,001,2025-10-03_09h09.09.054,Visual Search Experiment,,2025.1.1,60.5381844605742,2025-10-03 09h15.18.294614 +0530,
135,0,135,[np.float64(-0.4638888888888889)],[np.float64(-0.38472222222222224)],[1],[0],[0],[1.2675521999990451],['Target'],135,0,135,0,218.19090709999728,,10,218.1751748999959,218.19090709999728,218.19090709999728,0.045472700003301725,219.44294159999845,[np.float64(-0.4638888888888889)],[np.float64(-0.38472222222222224)],[1],[0],[0],[1.2675521999990451],['Target'],FIVE,001,2025-10-03_09h09.09.054,Visual Search Experiment,,2025.1.1,60.5381844605742,2025-10-03 09h15.18.294614 +0530,
136,0,136,[np.float64(0.33055555555555555)],[np.float64(0.09027777777777778)],[1],[0],[0],[1.3866455999959726],['Target'],136,0,136,0,219.47349359999498,,5,219.4597810999985,219.47349359999498,219.47349359999498,0.016709600000467617,220.8467948999969,[np.float64(0.33055555555555555)],[np.float64(0.09027777777777778)],[1],[0],[0],[1.3866455999959726],['Target'],FIVE,001,2025-10-03_09h09.09.054,Visual Search Experiment,,2025.1.1,60.5381844605742,2025-10-03 09h15.18.294614 +0530,
137,0,137,[np.float64(0.08055555555555556)],[np.float64(0.027777777777777776)],[1],[0],[0],[1.2185765000031097],['Target'],137,0,137,0,220.92440160000115,,10,220.89046719999897,220.92440160000115,220.92440160000115,0.04346090000035474,222.1092267999993,[np.float64(0.08055555555555556)],[np.float64(0.027777777777777776)],[1],[0],[0],[1.2185765000031097],['Target'],FIVE,001,2025-10-03_09h09.09.054,Visual Search Experiment,,2025.1.1,60.5381844605742,2025-10-03 09h15.18.294614 +0530,
138,0,138,[np.float64(0.4013888888888889)],[np.float64(0.3333333333333333)],[1],[0],[0],[1.2729050999987521],['Target'],138,0,138,0,222.1415405999942,,5,222.11954919999698,222.1415405999942,222.1415405999942,0.010220700001809746,223.39262139999482,[np.float64(0.4013888888888889)],[np.float64(0.3333333333333333)],[1],[0],[0],[1.2729050999987521],['Target'],FIVE,001,2025-10-03_09h09.09.054,Visual Search Experiment,,2025.1.1,60.5381844605742,2025-10-03 09h15.18.294614 +0530,
139,0,139,[np.float64(0.31805555555555554)],[np.float64(0.3)],[1],[0],[0],[1.1478767000007792],['Target'],139,0,139,0,223.42308670000057,,10,223.41059099999984,223.42308670000057,223.42308670000057,0.01788720000331523,224.55862389999675,[np.float64(0.31805555555555554)],[np.float64(0.3)],[1],[0],[0],[1.1478767000007792],['Target'],FIVE,001,2025-10-03_09h09.09.054,Visual Search Experiment,,2025.1.1,60.5381844605742,2025-10-03 09h15.18.294614 +0530,
140,0,140,[np.float64(0.33194444444444443)],[np.float64(-0.13194444444444445)],[1],[0],[0],[1.253447299997788],['Target'],140,0,140,0,224.69107369999983,,5,224.57134279999445,224.69107369999983,224.69107369999983,0.012576000000990462,225.82496559999709,[np.float64(0.33194444444444443)],[np.float64(-0.13194444444444445)],[1],[0],[0],[1.253447299997788],['Target'],FIVE,001,2025-10-03_09h09.09.054,Visual Search Experiment,,2025.1.1,60.5381844605742,2025-10-03 09h15.18.294614 +0530,
141,0,141,[np.float64(-0.30416666666666664)],[np.float64(-0.20416666666666666)],[1],[0],[0],[1.2873601999963284],['Target'],141,0,141,0,225.85623269999633,,5,225.83749399999942,225.85623269999633,225.85623269999633,0.012373999998089857,227.12504790000094,[np.float64(-0.30416666666666664)],[np.float64(-0.20416666666666666)],[1],[0],[0],[1.2873601999963284],['Target'],FIVE,001,2025-10-03_09h09.09.054,Visual Search Experiment,,2025.1.1,60.5381844605742,2025-10-03 09h15.18.294614 +0530,
142,0,142,[np.float64(-0.3527777777777778)],[np.float64(-0.4)],[1],[0],[0],[1.2704633999965154],['Target'],142,0,142,0,227.15644739999698,,5,227.1376614999972,227.15644739999698,227.15644739999698,0.012490900000557303,228.408322700001,[np.float64(-0.3527777777777778)],[np.float64(-0.4)],[1],[0],[0],[1.2704633999965154],['Target'],FIVE,001,2025-10-03_09h09.09.054,Visual Search Experiment,,2025.1.1,60.5381844605742,2025-10-03 09h15.18.294614 +0530,
143,0,143,[np.float64(-0.2722222222222222)],[np.float64(-0.30972222222222223)],[1],[0],[0],[1.2038169000006747],['Target'],143,0,143,0,228.45693269999902,,10,228.43818339999416,228.45693269999902,228.45693269999902,0.02970880000066245,229.64220159999968,[np.float64(-0.2722222222222222)],[np.float64(-0.30972222222222223)],[1],[0],[0],[1.2038169000006747],['Target'],FIVE,001,2025-10-03_09h09.09.054,Visual Search Experiment,,2025.1.1,60.5381844605742,2025-10-03 09h15.18.294614 +0530,
144,0,144,[np.float64(-0.08055555555555556)],[np.float64(-0.1763888888888889)],[1],[0],[0],[1.1854154000029666],['Target'],144,0,144,0,229.67293280000013,,5,229.65671859999566,229.67293280000013,229.67293280000013,0.014313100000435952,230.8422974999994,[np.float64(-0.08055555555555556)],[np.float64(-0.1763888888888889)],[1],[0],[0],[1.1854154000029666],['Target'],FIVE,001,2025-10-03_09h09.09.054,Visual Search Experiment,,2025.1.1,60.5381844605742,2025-10-03 09h15.18.294614 +0530,
145,0,145,[np.float64(0.009722222222222222)],[np.float64(0.34444444444444444)],[1],[0],[0],[1.6633392000003369],['Target'],145,0,145,0,230.90722829999868,,10,230.87818609999522,230.90722829999868,230.90722829999868,0.03582279999682214,232.54171959999803,[np.float64(0.009722222222222222)],[np.float64(0.34444444444444444)],[1],[0],[0],[1.6633392000003369],['Target'],FIVE,001,2025-10-03_09h09.09.054,Visual Search Experiment,,2025.1.1,60.5381844605742,2025-10-03 09h15.18.294614 +0530,
146,0,146,[np.float64(0.2513888888888889)],[np.float64(-0.30416666666666664)],[1],[0],[0],[1.6721945000026608],['Target'],146,0,146,0,232.57215189999988,,5,232.55342350000137,232.57215189999988,232.57215189999988,0.011616700001468416,234.22580609999568,[np.float64(0.2513888888888889)],[np.float64(-0.30416666666666664)],[1],[0],[0],[1.6721945000026608],['Target'],FIVE,001,2025-10-03_09h09.09.054,Visual Search Experiment,,2025.1.1,60.5381844605742,2025-10-03 09h15.18.294614 +0530,
147,0,147,[np.float64(0.32083333333333336)],[np.float64(0.044444444444444446)],[1],[0],[0],[1.1497961999994004],['Target'],147,0,147,0,234.25532609999937,,5,234.2411920999948,234.25532609999937,234.25532609999937,0.015270999996573664,235.3912066999983,[np.float64(0.32083333333333336)],[np.float64(0.044444444444444446)],[1],[0],[0],[1.1497961999994004],['Target'],FIVE,001,2025-10-03_09h09.09.054,Visual Search Experiment,,2025.1.1,60.5381844605742,2025-10-03 09h15.18.294614 +0530,
148,0,148,[np.float64(-0.10694444444444444)],[np.float64(-0.29305555555555557)],[1],[0],[0],[1.4224023999995552],['Target'],148,0,148,0,235.42226989999472,,5,235.4087528999953,235.42226989999472,235.42226989999472,0.017414499998267274,236.83146289999422,[np.float64(-0.10694444444444444)],[np.float64(-0.29305555555555557)],[1],[0],[0],[1.4224023999995552],['Target'],FIVE,001,2025-10-03_09h09.09.054,Visual Search Experiment,,2025.1.1,60.5381844605742,2025-10-03 09h15.18.294614 +0530,
149,0,149,[np.float64(0.24305555555555555)],[np.float64(0.39305555555555555)],[1],[0],[0],[2.3640596000041114],['Target'],149,0,149,0,236.87233379999816,,10,236.8594449000011,236.87233379999816,236.87233379999816,0.02776610000000801,239.22369659999822,[np.float64(0.24305555555555555)],[np.float64(0.39305555555555555)],[1],[0],[0],[2.3640596000041114],['Target'],FIVE,001,2025-10-03_09h09.09.054,Visual Search Experiment,,2025.1.1,60.5381844605742,2025-10-03 09h15.18.294614 +0530,
150,0,150,[np.float64(0.46805555555555556)],[np.float64(-0.13194444444444445)],[1],[0],[0],[1.421347399998922],['Target'],150,0,150,0,239.25466379999853,,5,239.23634219999803,239.25466379999853,239.25466379999853,0.01251369999954477,240.65787029999774,[np.float64(0.46805555555555556)],[np.float64(-0.13194444444444445)],[1],[0],[0],[1.421347399998922],['Target'],FIVE,001,2025-10-03_09h09.09.054,Visual Search Experiment,,2025.1.1,60.5381844605742,2025-10-03 09h15.18.294614 +0530,
151,0,151,[np.float64(0.3861111111111111)],[np.float64(-0.10277777777777777)],[1],[0],[0],[1.0521643999963999],['Target'],151,0,151,0,240.68917279999732,,5,240.67333439999493,240.68917279999732,240.68917279999732,0.015381999997771345,241.72572089999449,[np.float64(0.3861111111111111)],[np.float64(-0.10277777777777777)],[1],[0],[0],[1.0521643999963999],['Target'],FIVE,001,2025-10-03_09h09.09.054,Visual Search Experiment,,2025.1.1,60.5381844605742,2025-10-03 09h15.18.294614 +0530,
152,0,152,[np.float64(0.4777777777777778)],[np.float64(0.11388888888888889)],[1],[0],[0],[1.151553600000625],['Target'],152,0,152,0,241.78920970000036,,10,241.75718739999866,241.78920970000036,241.78920970000036,0.031357699997897726,242.90891980000015,[np.float64(0.4777777777777778)],[np.float64(0.11388888888888889)],[1],[0],[0],[1.151553600000625],['Target'],FIVE,001,2025-10-03_09h09.09.054,Visual Search Experiment,,2025.1.1,60.5381844605742,2025-10-03 09h15.18.294614 +0530,
153,0,153,"[np.float64(0.0875), np.float64(0.08333333333333333)]","[np.float64(-0.2611111111111111), np.float64(-0.2722222222222222)]","[1, 1]","[0, 0]","[0, 0]","[1.2278626000043005, 2.5116070000003674]","[None, 'Target']",153,0,153,0,242.95508219999465,,10,242.9292843000003,242.95508219999465,242.95508219999465,0.020256700001482386,245.44105719999789,"[np.float64(0.0875), np.float64(0.08333333333333333)]","[np.float64(-0.2611111111111111), np.float64(-0.2722222222222222)]","[1, 1]","[0, 0]","[0, 0]","[1.2278626000043005, 2.5116070000003674]","[None, 'Target']",FIVE,001,2025-10-03_09h09.09.054,Visual Search Experiment,,2025.1.1,60.5381844605742,2025-10-03 09h15.18.294614 +0530,
154,0,154,[np.float64(-0.5041666666666667)],[np.float64(0.09444444444444444)],[1],[0],[0],[2.6895224999971106],['Target'],154,0,154,0,245.48842799999693,,10,245.4676543999958,245.48842799999693,245.48842799999693,0.026478800005861558,248.15737660000013,[np.float64(-0.5041666666666667)],[np.float64(0.09444444444444444)],[1],[0],[0],[2.6895224999971106],['Target'],FIVE,001,2025-10-03_09h09.09.054,Visual Search Experiment,,2025.1.1,60.5381844605742,2025-10-03 09h15.18.294614 +0530,
155,0,155,[np.float64(-0.2222222222222222)],[np.float64(-0.2152777777777778)],[1],[0],[0],[2.290442100005748],['Target'],155,0,155,0,248.20545670000138,,10,248.18560309999884,248.20545670000138,248.20545670000138,0.028102600001147948,250.47629539999616,[np.float64(-0.2222222222222222)],[np.float64(-0.2152777777777778)],[1],[0],[0],[2.290442100005748],['Target'],FIVE,001,2025-10-03_09h09.09.054,Visual Search Experiment,,2025.1.1,60.5381844605742,2025-10-03 09h15.18.294614 +0530,
156,0,156,[np.float64(0.08333333333333333)],[np.float64(-0.37083333333333335)],[1],[0],[0],[1.43354669999826],['Target'],156,0,156,0,250.55556509999587,,10,250.52250639999693,250.55556509999587,250.55556509999587,0.0460084000005736,251.95628659999784,[np.float64(0.08333333333333333)],[np.float64(-0.37083333333333335)],[1],[0],[0],[1.43354669999826],['Target'],FIVE,001,2025-10-03_09h09.09.054,Visual Search Experiment,,2025.1.1,60.5381844605742,2025-10-03 09h15.18.294614 +0530,
157,0,157,[np.float64(0.02638888888888889)],[np.float64(0.25555555555555554)],[1],[0],[0],[1.8232872000007774],['Target'],157,0,157,0,251.9868146000008,,5,251.96833469999547,251.9868146000008,251.9868146000008,0.011946899998292793,253.79196209999645,[np.float64(0.02638888888888889)],[np.float64(0.25555555555555554)],[1],[0],[0],[1.8232872000007774],['Target'],FIVE,001,2025-10-03_09h09.09.054,Visual Search Experiment,,2025.1.1,60.5381844605742,2025-10-03 09h15.18.294614 +0530,
158,0,158,[np.float64(-0.075)],[np.float64(0.1638888888888889)],[1],[0],[0],[1.4686172000001534],['Target'],158,0,158,0,253.87197110000125,,10,253.8371643999999,253.87197110000125,253.87197110000125,0.04498810000222875,255.30605279999872,[np.float64(-0.075)],[np.float64(0.1638888888888889)],[1],[0],[0],[1.4686172000001534],['Target'],FIVE,001,2025-10-03_09h09.09.054,Visual Search Experiment,,2025.1.1,60.5381844605742,2025-10-03 09h15.18.294614 +0530,
159,0,159,[np.float64(-0.37916666666666665)],[np.float64(0.05277777777777778)],[1],[0],[0],[1.457885100004205],['Target'],159,0,159,0,255.3369906999942,,5,255.3186143999992,255.3369906999942,255.3369906999942,0.012458899997000117,256.7766951999947,[np.float64(-0.37916666666666665)],[np.float64(0.05277777777777778)],[1],[0],[0],[1.457885100004205],['Target'],FIVE,001,2025-10-03_09h09.09.054,Visual Search Experiment,,2025.1.1,60.5381844605742,2025-10-03 09h15.18.294614 +0530,
160,0,160,[np.float64(-0.059722222222222225)],[np.float64(-0.4486111111111111)],[1],[0],[0],[1.4373705999969388],['Target'],160,0,160,0,256.8545929999964,,10,256.8181052,256.8545929999964,256.8545929999964,0.04126920000271639,258.25573820000136,[np.float64(-0.059722222222222225)],[np.float64(-0.4486111111111111)],[1],[0],[0],[1.4373705999969388],['Target'],FIVE,001,2025-10-03_09h09.09.054,Visual Search Experiment,,2025.1.1,60.5381844605742,2025-10-03 09h15.18.294614 +0530,
161,0,161,[np.float64(-0.22083333333333333)],[np.float64(0.25)],[1],[0],[0],[1.8883993999988888],['Target'],161,0,161,0,258.28677909999533,,5,258.2675162000014,258.28677909999533,258.28677909999533,0.011590300004172605,260.15612390000024,[np.float64(-0.22083333333333333)],[np.float64(0.25)],[1],[0],[0],[1.8883993999988888],['Target'],FIVE,001,2025-10-03_09h09.09.054,Visual Search Experiment,,2025.1.1,60.5381844605742,2025-10-03 09h15.18.294614 +0530,
162,0,162,[np.float64(0.24027777777777778)],[np.float64(-0.18194444444444444)],[1],[0],[0],[2.601161400001729],['Target'],162,0,162,0,260.20331499999884,,10,260.18773209999927,260.20331499999884,260.20331499999884,0.031444899999769405,262.7891157999984,[np.float64(0.24027777777777778)],[np.float64(-0.18194444444444444)],[1],[0],[0],[2.601161400001729],['Target'],FIVE,001,2025-10-03_09h09.09.054,Visual Search Experiment,,2025.1.1,60.5381844605742,2025-10-03 09h15.18.294614 +0530,
163,0,163,[np.float64(0.37083333333333335)],[np.float64(0.48333333333333334)],[1],[0],[0],[1.7066683000011835],['Target'],163,0,163,0,262.8741885999989,,10,262.83495279999624,262.8741885999989,262.8741885999989,0.045656200003577396,264.5419937999977,[np.float64(0.37083333333333335)],[np.float64(0.48333333333333334)],[1],[0],[0],[1.7066683000011835],['Target'],FIVE,001,2025-10-03_09h09.09.054,Visual Search Experiment,,2025.1.1,60.5381844605742,2025-10-03 09h15.18.294614 +0530,
164,0,164,[np.float64(-0.03611111111111111)],[np.float64(-0.4)],[1],[0],[0],[1.6074757000023965],['Target'],164,0,164,0,264.58888209999714,,5,264.5685244999986,264.58888209999714,264.58888209999714,0.026276399999915157,266.17637749999994,[np.float64(-0.03611111111111111)],[np.float64(-0.4)],[1],[0],[0],[1.6074757000023965],['Target'],FIVE,001,2025-10-03_09h09.09.054,Visual Search Experiment,,2025.1.1,60.5381844605742,2025-10-03 09h15.18.294614 +0530,
165,0,165,[np.float64(0.4652777777777778)],[np.float64(0.09027777777777778)],[1],[0],[0],[1.4310799000013503],['Target'],165,0,165,0,266.23978389999684,,5,266.2078141999955,266.23978389999684,266.23978389999684,0.03122309999889694,267.63918519999424,[np.float64(0.4652777777777778)],[np.float64(0.09027777777777778)],[1],[0],[0],[1.4310799000013503],['Target'],FIVE,001,2025-10-03_09h09.09.054,Visual Search Experiment,,2025.1.1,60.5381844605742,2025-10-03 09h15.18.294614 +0530,
166,0,166,[np.float64(-0.30972222222222223)],[np.float64(-0.3541666666666667)],[1],[0],[0],[1.4616721999991569],['Target'],166,0,166,0,267.68678920000093,,5,267.6596883999955,267.68678920000093,267.68678920000093,0.020363299998280127,269.12155209999764,[np.float64(-0.30972222222222223)],[np.float64(-0.3541666666666667)],[1],[0],[0],[1.4616721999991569],['Target'],FIVE,001,2025-10-03_09h09.09.054,Visual Search Experiment,,2025.1.1,60.5381844605742,2025-10-03 09h15.18.294614 +0530,
167,0,167,"[np.float64(-0.07777777777777778), np.float64(-0.09861111111111111)]","[np.float64(0.46944444444444444), np.float64(0.46944444444444444)]","[1, 1]","[0, 0]","[0, 0]","[1.7011254000026383, 2.467886999998882]","[None, 'Target']",167,0,167,0,269.15171399999963,,5,269.13817469999776,269.15171399999963,269.15171399999963,0.01651329999731388,271.6063207999978,"[np.float64(-0.07777777777777778), np.float64(-0.09861111111111111)]","[np.float64(0.46944444444444444), np.float64(0.46944444444444444)]","[1, 1]","[0, 0]","[0, 0]","[1.7011254000026383, 2.467886999998882]","[None, 'Target']",FIVE,001,2025-10-03_09h09.09.054,Visual Search Experiment,,2025.1.1,60.5381844605742,2025-10-03 09h15.18.294614 +0530,
168,0,168,"[np.float64(-0.025), np.float64(-0.020833333333333332)]","[np.float64(0.2972222222222222), np.float64(0.2722222222222222)]","[1, 1]","[0, 0]","[0, 0]","[1.298521199998504, 1.9808316999988165]","[None, 'Target']",168,0,168,0,271.66907029999857,,10,271.63946790000045,271.66907029999857,271.66907029999857,0.0329141999973217,273.6205140999955,"[np.float64(-0.025), np.float64(-0.020833333333333332)]","[np.float64(0.2972222222222222), np.float64(0.2722222222222222)]","[1, 1]","[0, 0]","[0, 0]","[1.298521199998504, 1.9808316999988165]","[None, 'Target']",FIVE,001,2025-10-03_09h09.09.054,Visual Search Experiment,,2025.1.1,60.5381844605742,2025-10-03 09h15.18.294614 +0530,
169,0,169,"[np.float64(-0.04583333333333333), np.float64(-0.05555555555555555)]","[np.float64(0.39444444444444443), np.float64(0.36944444444444446)]","[1, 1]","[0, 0]","[0, 0]","[1.187481699998898, 1.987107399996603]","[None, 'Target']",169,0,169,0,273.6513698999988,,5,273.6343429999979,273.6513698999988,273.6513698999988,0.013680199997907039,275.62171419999504,"[np.float64(-0.04583333333333333), np.float64(-0.05555555555555555)]","[np.float64(0.39444444444444443), np.float64(0.36944444444444446)]","[1, 1]","[0, 0]","[0, 0]","[1.187481699998898, 1.987107399996603]","[None, 'Target']",FIVE,001,2025-10-03_09h09.09.054,Visual Search Experiment,,2025.1.1,60.5381844605742,2025-10-03 09h15.18.294614 +0530,
170,0,170,[np.float64(-0.25833333333333336)],[np.float64(-0.4888888888888889)],[1],[0],[0],[1.6670589999994263],['Target'],170,0,170,0,275.6689467999968,,10,275.65501689999655,275.6689467999968,275.6689467999968,0.033092699995904695,277.322333600001,[np.float64(-0.25833333333333336)],[np.float64(-0.4888888888888889)],[1],[0],[0],[1.6670589999994263],['Target'],FIVE,001,2025-10-03_09h09.09.054,Visual Search Experiment,,2025.1.1,60.5381844605742,2025-10-03 09h15.18.294614 +0530,
171,0,171,[np.float64(0.175)],[np.float64(0.16111111111111112)],[1],[0],[0],[1.4484348999976646],['Target'],171,0,171,0,277.3513177999994,,5,277.33782229999633,277.3513177999994,277.3513177999994,0.015305499997339211,278.786497299996,[np.float64(0.175)],[np.float64(0.16111111111111112)],[1],[0],[0],[1.4484348999976646],['Target'],FIVE,001,2025-10-03_09h09.09.054,Visual Search Experiment,,2025.1.1,60.5381844605742,2025-10-03 09h15.18.294614 +0530,
172,0,172,[np.float64(0.49027777777777776)],[np.float64(-0.44166666666666665)],[1],[0],[0],[1.3564733000021079],['Target'],172,0,172,0,278.83516360000067,,10,278.8126035999958,278.83516360000067,278.83516360000067,0.026022800004284363,280.16924540000036,[np.float64(0.49027777777777776)],[np.float64(-0.44166666666666665)],[1],[0],[0],[1.3564733000021079],['Target'],FIVE,001,2025-10-03_09h09.09.054,Visual Search Experiment,,2025.1.1,60.5381844605742,2025-10-03 09h15.18.294614 +0530,
173,0,173,[np.float64(-0.13333333333333333)],[np.float64(0.3375)],[1],[0],[0],[1.5556657999986783],['Target'],173,0,173,0,280.20089759999973,,5,280.1810375999994,280.20089759999973,280.20089759999973,0.011665099998936057,281.73689329999615,[np.float64(-0.13333333333333333)],[np.float64(0.3375)],[1],[0],[0],[1.5556657999986783],['Target'],FIVE,001,2025-10-03_09h09.09.054,Visual Search Experiment,,2025.1.1,60.5381844605742,2025-10-03 09h15.18.294614 +0530,
174,0,174,"[np.float64(0.48333333333333334), np.float64(0.5041666666666667)]","[np.float64(0.32916666666666666), np.float64(0.36527777777777776)]","[1, 1]","[0, 0]","[0, 0]","[1.723775200000091, 2.404401699997834]","[None, 'Target']",174,0,174,0,281.7670014999967,,5,281.7476374999969,281.7670014999967,281.7670014999967,0.010609300006763078,284.152239199997,"[np.float64(0.48333333333333334), np.float64(0.5041666666666667)]","[np.float64(0.32916666666666666), np.float64(0.36527777777777776)]","[1, 1]","[0, 0]","[0, 0]","[1.723775200000091, 2.404401699997834]","[None, 'Target']",FIVE,001,2025-10-03_09h09.09.054,Visual Search Experiment,,2025.1.1,60.5381844605742,2025-10-03 09h15.18.294614 +0530,
175,0,175,[np.float64(-0.39305555555555555)],[np.float64(-0.3236111111111111)],[1],[0],[0],[1.676954399998067],['Target'],175,0,175,0,284.2010408999995,,10,284.17603419999796,284.2010408999995,284.2010408999995,0.023664200001803692,285.85324989999935,[np.float64(-0.39305555555555555)],[np.float64(-0.3236111111111111)],[1],[0],[0],[1.676954399998067],['Target'],FIVE,001,2025-10-03_09h09.09.054,Visual Search Experiment,,2025.1.1,60.5381844605742,2025-10-03 09h15.18.294614 +0530,
176,0,176,[np.float64(0.4263888888888889)],[np.float64(0.21388888888888888)],[1],[0],[0],[1.624638799999957],['Target'],176,0,176,0,285.9013571999967,,5,285.8778588999994,285.9013571999967,285.9013571999967,0.024401700000453275,287.5027321999951,[np.float64(0.4263888888888889)],[np.float64(0.21388888888888888)],[1],[0],[0],[1.624638799999957],['Target'],FIVE,001,2025-10-03_09h09.09.054,Visual Search Experiment,,2025.1.1,60.5381844605742,2025-10-03 09h15.18.294614 +0530,
177,0,177,[np.float64(0.0763888888888889)],[np.float64(0.19027777777777777)],[1],[0],[0],[1.137586500000907],['Target'],177,0,177,0,287.53331700000126,,5,287.51444289999927,287.53331700000126,287.53331700000126,0.011616700001468416,288.6521853999948,[np.float64(0.0763888888888889)],[np.float64(0.19027777777777777)],[1],[0],[0],[1.137586500000907],['Target'],FIVE,001,2025-10-03_09h09.09.054,Visual Search Experiment,,2025.1.1,60.5381844605742,2025-10-03 09h15.18.294614 +0530,
178,0,178,[np.float64(0.3861111111111111)],[np.float64(-0.4388888888888889)],[1],[0],[0],[1.4780749000055948],['Target'],178,0,178,0,288.70134210000106,,10,288.674142799995,288.70134210000106,288.70134210000106,0.02186680000158958,290.15239499999734,[np.float64(0.3861111111111111)],[np.float64(-0.4388888888888889)],[1],[0],[0],[1.4780749000055948],['Target'],FIVE,001,2025-10-03_09h09.09.054,Visual Search Experiment,,2025.1.1,60.5381844605742,2025-10-03 09h15.18.294614 +0530,
179,0,179,[np.float64(0.4708333333333333)],[np.float64(0.02638888888888889)],[1],[0],[0],[1.6368990000046324],['Target'],179,0,179,0,290.1832046999989,,5,290.1652710999988,290.1832046999989,290.1832046999989,0.012740199999825563,291.80234519999794,[np.float64(0.4708333333333333)],[np.float64(0.02638888888888889)],[1],[0],[0],[1.6368990000046324],['Target'],FIVE,001,2025-10-03_09h09.09.054,Visual Search Experiment,,2025.1.1,60.5381844605742,2025-10-03 09h15.18.294614 +0530,
180,0,180,[np.float64(0.14583333333333334)],[np.float64(0.08472222222222223)],[1],[0],[0],[1.1273345000008703],['Target'],180,0,180,0,291.8506808999955,,10,291.8241890999998,291.8506808999955,291.8506808999955,0.021752600005129352,292.9517080000005,[np.float64(0.14583333333333334)],[np.float64(0.08472222222222223)],[1],[0],[0],[1.1273345000008703],['Target'],FIVE,001,2025-10-03_09h09.09.054,Visual Search Experiment,,2025.1.1,60.5381844605742,2025-10-03 09h15.18.294614 +0530,
181,0,181,[np.float64(0.4583333333333333)],[np.float64(0.45416666666666666)],[1],[0],[0],[1.4376273000016226],['Target'],181,0,181,0,292.98324090000096,,5,292.96571089999634,292.98324090000096,292.98324090000096,0.013873600000806618,294.4035492999974,[np.float64(0.4583333333333333)],[np.float64(0.45416666666666666)],[1],[0],[0],[1.4376273000016226],['Target'],FIVE,001,2025-10-03_09h09.09.054,Visual Search Experiment,,2025.1.1,60.5381844605742,2025-10-03 09h15.18.294614 +0530,
182,0,182,[np.float64(-0.2791666666666667)],[np.float64(-0.4638888888888889)],[1],[0],[0],[1.731036999997741],['Target'],182,0,182,0,294.432793699998,,5,294.4213985999959,294.432793699998,294.432793699998,0.017704500001855195,296.1526535000012,[np.float64(-0.2791666666666667)],[np.float64(-0.4638888888888889)],[1],[0],[0],[1.731036999997741],['Target'],FIVE,001,2025-10-03_09h09.09.054,Visual Search Experiment,,2025.1.1,60.5381844605742,2025-10-03 09h15.18.294614 +0530,
183,0,183,"[np.float64(0.006944444444444444), np.float64(0.02361111111111111)]","[np.float64(0.19166666666666668), np.float64(0.20555555555555555)]","[1, 1]","[0, 0]","[0, 0]","[1.3354829999952926, 2.1192337999964366]","[None, 'Target']",183,0,183,0,296.1823285999999,,5,296.1663062999942,296.1823285999999,296.1823285999999,0.013537899998482317,298.28583129999606,"[np.float64(0.006944444444444444), np.float64(0.02361111111111111)]","[np.float64(0.19166666666666668), np.float64(0.20555555555555555)]","[1, 1]","[0, 0]","[0, 0]","[1.3354829999952926, 2.1192337999964366]","[None, 'Target']",FIVE,001,2025-10-03_09h09.09.054,Visual Search Experiment,,2025.1.1,60.5381844605742,2025-10-03 09h15.18.294614 +0530,
184,0,184,[np.float64(-0.3138888888888889)],[np.float64(-0.4666666666666667)],[1],[0],[0],[1.4296547999983886],['Target'],184,0,184,0,298.31552219999867,,5,298.3049319999991,298.31552219999867,298.31552219999867,0.018918800000392366,299.7347928999952,[np.float64(-0.3138888888888889)],[np.float64(-0.4666666666666667)],[1],[0],[0],[1.4296547999983886],['Target'],FIVE,001,2025-10-03_09h09.09.054,Visual Search Experiment,,2025.1.1,60.5381844605742,2025-10-03 09h15.18.294614 +0530,
185,0,185,[np.float64(0.32083333333333336)],[np.float64(-0.3458333333333333)],[1],[0],[0],[1.525396400000318],['Target'],185,0,185,0,299.7659949000008,,5,299.7436630999946,299.7659949000008,299.7659949000008,0.008787200000369921,301.26922449999984,[np.float64(0.32083333333333336)],[np.float64(-0.3458333333333333)],[1],[0],[0],[1.525396400000318],['Target'],FIVE,001,2025-10-03_09h09.09.054,Visual Search Experiment,,2025.1.1,60.5381844605742,2025-10-03 09h15.18.294614 +0530,
186,0,186,[np.float64(0.17916666666666667)],[np.float64(-0.28055555555555556)],[1],[0],[0],[1.3871634000024642],['Target'],186,0,186,0,301.2985905999958,,5,301.2804707999967,301.2985905999958,301.2985905999958,0.011152500002935994,302.66778739999427,[np.float64(0.17916666666666667)],[np.float64(-0.28055555555555556)],[1],[0],[0],[1.3871634000024642],['Target'],FIVE,001,2025-10-03_09h09.09.054,Visual Search Experiment,,2025.1.1,60.5381844605742,2025-10-03 09h15.18.294614 +0530,
187,0,187,[np.float64(-0.15)],[np.float64(-0.09861111111111111)],[1],[0],[0],[1.2111416999978246],['Target'],187,0,187,0,302.7172078000003,,10,302.6902872999999,302.7172078000003,302.7172078000003,0.022410600002331194,303.901589699999,[np.float64(-0.15)],[np.float64(-0.09861111111111111)],[1],[0],[0],[1.2111416999978246],['Target'],FIVE,001,2025-10-03_09h09.09.054,Visual Search Experiment,,2025.1.1,60.5381844605742,2025-10-03 09h15.18.294614 +0530,
188,0,188,[np.float64(-0.3472222222222222)],[np.float64(-0.25416666666666665)],[1],[0],[0],[1.343391900001734],['Target'],188,0,188,0,303.9319101000001,,5,303.9131978000005,303.9319101000001,303.9319101000001,0.011499900007038377,305.2568567999988,[np.float64(-0.3472222222222222)],[np.float64(-0.25416666666666665)],[1],[0],[0],[1.343391900001734],['Target'],FIVE,001,2025-10-03_09h09.09.054,Visual Search Experiment,,2025.1.1,60.5381844605742,2025-10-03 09h15.18.294614 +0530,
189,0,189,[np.float64(-0.3013888888888889)],[np.float64(-0.19722222222222222)],[1],[0],[0],[0.9543150999961654],['Target'],189,0,189,0,305.3155033000003,,10,305.2974807999999,305.3155033000003,305.3155033000003,0.04041760000109207,306.25204790000134,[np.float64(-0.3013888888888889)],[np.float64(-0.19722222222222222)],[1],[0],[0],[0.9543150999961654],['Target'],FIVE,001,2025-10-03_09h09.09.054,Visual Search Experiment,,2025.1.1,60.5381844605742,2025-10-03 09h15.18.294614 +0530,
190,0,190,[np.float64(-0.10416666666666667)],[np.float64(-0.4152777777777778)],[1],[0],[0],[1.7122269999963464],['Target'],190,0,190,0,306.3171499999953,,10,306.2882501999993,306.3171499999953,306.3171499999953,0.03601329999946756,308.00068699999974,[np.float64(-0.10416666666666667)],[np.float64(-0.4152777777777778)],[1],[0],[0],[1.7122269999963464],['Target'],FIVE,001,2025-10-03_09h09.09.054,Visual Search Experiment,,2025.1.1,60.5381844605742,2025-10-03 09h15.18.294614 +0530,
191,0,191,[np.float64(-0.19166666666666668)],[np.float64(-0.17916666666666667)],[1],[0],[0],[1.4374957000036375],['Target'],191,0,191,0,308.03106899999693,,5,308.01246629999514,308.03106899999693,308.03106899999693,0.011670399995637126,309.4501240999962,[np.float64(-0.19166666666666668)],[np.float64(-0.17916666666666667)],[1],[0],[0],[1.4374957000036375],['Target'],FIVE,001,2025-10-03_09h09.09.054,Visual Search Experiment,,2025.1.1,60.5381844605742,2025-10-03 09h15.18.294614 +0530,
192,0,192,[np.float64(0.12361111111111112)],[np.float64(-0.31666666666666665)],[1],[0],[0],[1.1941164000018034],['Target'],192,0,192,0,309.4983843000009,,10,309.47289819999423,309.4983843000009,309.4983843000009,0.02269240000168793,310.6671933999969,[np.float64(0.12361111111111112)],[np.float64(-0.31666666666666665)],[1],[0],[0],[1.1941164000018034],['Target'],FIVE,001,2025-10-03_09h09.09.054,Visual Search Experiment,,2025.1.1,60.5381844605742,2025-10-03 09h15.18.294614 +0530,
193,0,193,[np.float64(0.1763888888888889)],[np.float64(-0.4361111111111111)],[1],[0],[0],[2.5658275000023423],['Target'],193,0,193,0,310.7324641000014,,10,310.70040389999485,310.7324641000014,310.7324641000014,0.03307949999725679,313.2664383999945,[np.float64(0.1763888888888889)],[np.float64(-0.4361111111111111)],[1],[0],[0],[2.5658275000023423],['Target'],FIVE,001,2025-10-03_09h09.09.054,Visual Search Experiment,,2025.1.1,60.5381844605742,2025-10-03 09h15.18.294614 +0530,
194,0,194,[np.float64(-0.40555555555555556)],[np.float64(0.3625)],[1],[0],[0],[2.208192999998573],['Target'],194,0,194,0,313.2979348999943,,5,313.274668799997,313.2979348999943,313.2979348999943,0.00812690000020666,315.48303640000086,[np.float64(-0.40555555555555556)],[np.float64(0.3625)],[1],[0],[0],[2.208192999998573],['Target'],FIVE,001,2025-10-03_09h09.09.054,Visual Search Experiment,,2025.1.1,60.5381844605742,2025-10-03 09h15.18.294614 +0530,
195,0,195,[np.float64(-0.1486111111111111)],[np.float64(0.24722222222222223)],[1],[0],[0],[1.1041839000026812],['Target'],195,0,195,0,315.51357149999967,,5,315.4954429999998,315.51357149999967,315.51357149999967,0.012304599993512966,316.5998036999954,[np.float64(-0.1486111111111111)],[np.float64(0.24722222222222223)],[1],[0],[0],[1.1041839000026812],['Target'],FIVE,001,2025-10-03_09h09.09.054,Visual Search Experiment,,2025.1.1,60.5381844605742,2025-10-03 09h15.18.294614 +0530,
196,0,196,[np.float64(0.31805555555555554)],[np.float64(-0.09444444444444444)],[1],[0],[0],[1.3600364000012632],['Target'],196,0,196,0,316.64750329999515,,10,316.6230348999961,316.64750329999515,316.64750329999515,0.02313950000097975,317.9832222999976,[np.float64(0.31805555555555554)],[np.float64(-0.09444444444444444)],[1],[0],[0],[1.3600364000012632],['Target'],FIVE,001,2025-10-03_09h09.09.054,Visual Search Experiment,,2025.1.1,60.5381844605742,2025-10-03 09h15.18.294614 +0530,
197,0,197,[np.float64(0.020833333333333332)],[np.float64(0.19444444444444445)],[1],[0],[0],[1.38652049999655],['Target'],197,0,197,0,318.0486576999974,,10,318.01282869999704,318.0486576999974,318.0486576999974,0.029532900000049267,319.3995489000008,[np.float64(0.020833333333333332)],[np.float64(0.19444444444444445)],[1],[0],[0],[1.38652049999655],['Target'],FIVE,001,2025-10-03_09h09.09.054,Visual Search Experiment,,2025.1.1,60.5381844605742,2025-10-03 09h15.18.294614 +0530,
198,0,198,[np.float64(-0.4638888888888889)],[np.float64(-0.05555555555555555)],[1],[0],[0],[1.4469637000001967],['Target'],198,0,198,0,319.42982589999883,,10,319.4192965999973,319.42982589999883,319.42982589999883,0.019642200000816956,320.8664079999944,[np.float64(-0.4638888888888889)],[np.float64(-0.05555555555555555)],[1],[0],[0],[1.4469637000001967],['Target'],FIVE,001,2025-10-03_09h09.09.054,Visual Search Experiment,,2025.1.1,60.5381844605742,2025-10-03 09h15.18.294614 +0530,
199,0,199,[np.float64(0.4583333333333333)],[np.float64(-0.08194444444444444)],[1],[0],[0],[1.3587474000014481],['Target'],199,0,199,0,320.89675780000107,,5,320.8760447999957,320.89675780000107,320.89675780000107,0.00952770000003511,322.2350010000009,[np.float64(0.4583333333333333)],[np.float64(-0.08194444444444444)],[1],[0],[0],[1.3587474000014481],['Target'],FIVE,001,2025-10-03_09h09.09.054,Visual Search Experiment,,2025.1.1,60.5381844605742,2025-10-03 09h15.18.294614 +0530,
