thisN,thisTrialN,thisRepN,mouse.x,mouse.y,mouse.leftButton,mouse.midButton,mouse.rightButton,mouse.time,mouse.clicked_name,trials.thisRepN,trials.thisTrialN,trials.thisN,trials.thisIndex,thisRow.t,notes,num_distr,trial.started,Fixation.started,Target.started,mouse.started,trial.stopped,trials.mouse.x,trials.mouse.y,trials.mouse.leftButton,trials.mouse.midButton,trials.mouse.rightButton,trials.mouse.time,trials.mouse.clicked_name,participant,session,date,expName,expVersion,psychopyVersion,frameRate,expStart,
0,0,0,[np.float64(-0.12916666666666668)],[np.float64(-0.3333333333333333)],[1],[0],[0],[1.5590392000012798],['Target'],0,0,0,0,0.06745819999923697,,10,0.04269949999434175,0.06745819999923697,0.06745819999923697,0.04272560000390513,1.6018851999979233,[np.float64(-0.12916666666666668)],[np.float64(-0.3333333333333333)],[1],[0],[0],[1.5590392000012798],['Target'],FOUR,001,2025-10-03_09h01.26.447,Visual Search Experiment,,2025.1.1,59.53794978701923,2025-10-03 09h01.55.857312 +0530,
1,0,1,[np.float64(-0.32222222222222224)],[np.float64(-0.32916666666666666)],[1],[0],[0],[1.7478073999955086],['Target'],1,0,1,0,1.6326618999955826,,10,1.6206265000000712,1.6326618999955826,1.6326618999955826,0.018631699997058604,3.3685779000006733,[np.float64(-0.32222222222222224)],[np.float64(-0.32916666666666666)],[1],[0],[0],[1.7478073999955086],['Target'],FOUR,001,2025-10-03_09h01.26.447,Visual Search Experiment,,2025.1.1,59.53794978701923,2025-10-03 09h01.55.857312 +0530,
2,0,2,[np.float64(-0.2763888888888889)],[np.float64(-0.05138888888888889)],[1],[0],[0],[1.073015599999053],['Target'],2,0,2,0,3.3994440999958897,,5,3.377862699999241,3.3994440999958897,3.3994440999958897,0.009168700002192054,4.451015699996788,[np.float64(-0.2763888888888889)],[np.float64(-0.05138888888888889)],[1],[0],[0],[1.073015599999053],['Target'],FOUR,001,2025-10-03_09h01.26.447,Visual Search Experiment,,2025.1.1,59.53794978701923,2025-10-03 09h01.55.857312 +0530,
3,0,3,[np.float64(-0.3611111111111111)],[np.float64(-0.4777777777777778)],[1],[0],[0],[3.514597000001231],['Target'],3,0,3,0,4.482684199996584,,10,4.469206899993878,4.482684199996584,4.482684199996584,0.018108800002664793,7.98395729999902,[np.float64(-0.3611111111111111)],[np.float64(-0.4777777777777778)],[1],[0],[0],[3.514597000001231],['Target'],FOUR,001,2025-10-03_09h01.26.447,Visual Search Experiment,,2025.1.1,59.53794978701923,2025-10-03 09h01.55.857312 +0530,
4,0,4,[np.float64(0.4375)],[np.float64(0.30972222222222223)],[1],[0],[0],[1.634734600003867],['Target'],4,0,4,0,8.017247399999178,,5,7.9986392999999225,8.017247399999178,8.017247399999178,0.014592899999115616,9.63355519999459,[np.float64(0.4375)],[np.float64(0.30972222222222223)],[1],[0],[0],[1.634734600003867],['Target'],FOUR,001,2025-10-03_09h01.26.447,Visual Search Experiment,,2025.1.1,59.53794978701923,2025-10-03 09h01.55.857312 +0530,
5,0,5,[np.float64(0.2777777777777778)],[np.float64(0.38055555555555554)],[1],[0],[0],[1.499362700000347],['Target'],5,0,5,0,9.665081299994199,,10,9.650748000000021,9.665081299994199,9.665081299994199,0.017100000004575122,11.150241399998777,[np.float64(0.2777777777777778)],[np.float64(0.38055555555555554)],[1],[0],[0],[1.499362700000347],['Target'],FOUR,001,2025-10-03_09h01.26.447,Visual Search Experiment,,2025.1.1,59.53794978701923,2025-10-03 09h01.55.857312 +0530,
6,0,6,[np.float64(-0.2833333333333333)],[np.float64(0.3402777777777778)],[1],[0],[0],[2.508169299995643],['Target'],6,0,6,0,11.18098579999787,,5,11.159324399995967,11.18098579999787,11.18098579999787,0.008987899993371684,13.66765889999806,[np.float64(-0.2833333333333333)],[np.float64(0.3402777777777778)],[1],[0],[0],[2.508169299995643],['Target'],FOUR,001,2025-10-03_09h01.26.447,Visual Search Experiment,,2025.1.1,59.53794978701923,2025-10-03 09h01.55.857312 +0530,
7,0,7,[np.float64(-0.35555555555555557)],[np.float64(0.18472222222222223)],[1],[0],[0],[1.277704400003131],['Target'],7,0,7,0,13.715513099996315,,10,13.689272699994035,13.715513099996315,13.715513099996315,0.021510899998247623,14.967130999997607,[np.float64(-0.35555555555555557)],[np.float64(0.18472222222222223)],[1],[0],[0],[1.277704400003131],['Target'],FOUR,001,2025-10-03_09h01.26.447,Visual Search Experiment,,2025.1.1,59.53794978701923,2025-10-03 09h01.55.857312 +0530,
8,0,8,[np.float64(-0.1875)],[np.float64(0.1638888888888889)],[1],[0],[0],[0.9891786999942269],['Target'],8,0,8,0,14.997774999996182,,5,14.979358500000671,14.997774999996182,14.997774999996182,0.012113999997382052,15.968779899994843,[np.float64(-0.1875)],[np.float64(0.1638888888888889)],[1],[0],[0],[0.9891786999942269],['Target'],FOUR,001,2025-10-03_09h01.26.447,Visual Search Experiment,,2025.1.1,59.53794978701923,2025-10-03 09h01.55.857312 +0530,
9,0,9,[np.float64(0.47638888888888886)],[np.float64(0.10277777777777777)],[1],[0],[0],[1.4084202000012738],['Target'],9,0,9,0,16.01443709999876,,10,15.991589400000521,16.01443709999876,16.01443709999876,0.022633099993981887,17.400147699998342,[np.float64(0.47638888888888886)],[np.float64(0.10277777777777777)],[1],[0],[0],[1.4084202000012738],['Target'],FOUR,001,2025-10-03_09h01.26.447,Visual Search Experiment,,2025.1.1,59.53794978701923,2025-10-03 09h01.55.857312 +0530,
10,0,10,"[np.float64(0.4888888888888889), np.float64(0.4888888888888889)]","[np.float64(-0.18194444444444444), np.float64(-0.2)]","[1, 1]","[0, 0]","[0, 0]","[1.2073921999981394, 1.892530600001919]","[None, 'Target']",10,0,10,0,17.430425299993658,,5,17.40910679999797,17.430425299993658,17.430425299993658,0.008859400004439522,19.30195459999959,"[np.float64(0.4888888888888889), np.float64(0.4888888888888889)]","[np.float64(-0.18194444444444444), np.float64(-0.2)]","[1, 1]","[0, 0]","[0, 0]","[1.2073921999981394, 1.892530600001919]","[None, 'Target']",FOUR,001,2025-10-03_09h01.26.447,Visual Search Experiment,,2025.1.1,59.53794978701923,2025-10-03 09h01.55.857312 +0530,
11,0,11,[np.float64(-0.14305555555555555)],[np.float64(-0.03611111111111111)],[1],[0],[0],[1.5834416999932728],['Target'],11,0,11,0,19.34855119999702,,10,19.334253799999715,19.34855119999702,19.34855119999702,0.031780999997863546,20.91792870000063,[np.float64(-0.14305555555555555)],[np.float64(-0.03611111111111111)],[1],[0],[0],[1.5834416999932728],['Target'],FOUR,001,2025-10-03_09h01.26.447,Visual Search Experiment,,2025.1.1,59.53794978701923,2025-10-03 09h01.55.857312 +0530,
12,0,12,[np.float64(-0.1597222222222222)],[np.float64(0.2611111111111111)],[1],[0],[0],[1.2696727000002284],['Target'],12,0,12,0,20.964707200000703,,10,20.94811149999441,20.964707200000703,20.964707200000703,0.029953899997053668,22.218065699998988,[np.float64(-0.1597222222222222)],[np.float64(0.2611111111111111)],[1],[0],[0],[1.2696727000002284],['Target'],FOUR,001,2025-10-03_09h01.26.447,Visual Search Experiment,,2025.1.1,59.53794978701923,2025-10-03 09h01.55.857312 +0530,
13,0,13,[np.float64(0.011111111111111112)],[np.float64(0.37777777777777777)],[1],[0],[0],[1.2784230999968713],['Target'],13,0,13,0,22.281748299996252,,10,22.25534239999979,22.281748299996252,22.281748299996252,0.03696759999729693,23.53395289999753,[np.float64(0.011111111111111112)],[np.float64(0.37777777777777777)],[1],[0],[0],[1.2784230999968713],['Target'],FOUR,001,2025-10-03_09h01.26.447,Visual Search Experiment,,2025.1.1,59.53794978701923,2025-10-03 09h01.55.857312 +0530,
14,0,14,[np.float64(0.36944444444444446)],[np.float64(-0.42916666666666664)],[1],[0],[0],[1.9379688999979408],['Target'],14,0,14,0,23.5645016999988,,5,23.545309199995245,23.5645016999988,23.5645016999988,0.011252200005401392,25.483462500000314,[np.float64(0.36944444444444446)],[np.float64(-0.42916666666666664)],[1],[0],[0],[1.9379688999979408],['Target'],FOUR,001,2025-10-03_09h01.26.447,Visual Search Experiment,,2025.1.1,59.53794978701923,2025-10-03 09h01.55.857312 +0530,
15,0,15,[np.float64(0.22916666666666666)],[np.float64(-0.45416666666666666)],[1],[0],[0],[1.2227560000028461],['Target'],15,0,15,0,25.51322309999523,,5,25.49802169999748,25.51322309999523,25.51322309999523,0.014413799995963927,26.720998599994346,[np.float64(0.22916666666666666)],[np.float64(-0.45416666666666666)],[1],[0],[0],[1.2227560000028461],['Target'],FOUR,001,2025-10-03_09h01.26.447,Visual Search Experiment,,2025.1.1,59.53794978701923,2025-10-03 09h01.55.857312 +0530,
16,0,16,[np.float64(0.3472222222222222)],[np.float64(0.45)],[1],[0],[0],[2.256590500001039],['Target'],16,0,16,0,26.78105610000057,,10,26.757828199995856,26.78105610000057,26.78105610000057,0.03665069999988191,29.014603600000555,[np.float64(0.3472222222222222)],[np.float64(0.45)],[1],[0],[0],[2.256590500001039],['Target'],FOUR,001,2025-10-03_09h01.26.447,Visual Search Experiment,,2025.1.1,59.53794978701923,2025-10-03 09h01.55.857312 +0530,
17,0,17,[np.float64(0.30972222222222223)],[np.float64(0.30277777777777776)],[1],[0],[0],[1.2554017000002204],['Target'],17,0,17,0,29.04621579999366,,5,29.026899199998297,29.04621579999366,29.04621579999366,0.012164100000518374,30.282480199995916,[np.float64(0.30972222222222223)],[np.float64(0.30277777777777776)],[1],[0],[0],[1.2554017000002204],['Target'],FOUR,001,2025-10-03_09h01.26.447,Visual Search Experiment,,2025.1.1,59.53794978701923,2025-10-03 09h01.55.857312 +0530,
18,0,18,[np.float64(-0.3638888888888889)],[np.float64(-0.15833333333333333)],[1],[0],[0],[1.8953584000046249],['Target'],18,0,18,0,30.330370899995614,,10,30.30386429999635,30.330370899995614,30.330370899995614,0.021292899997206405,32.199407000000065,[np.float64(-0.3638888888888889)],[np.float64(-0.15833333333333333)],[1],[0],[0],[1.8953584000046249],['Target'],FOUR,001,2025-10-03_09h01.26.447,Visual Search Experiment,,2025.1.1,59.53794978701923,2025-10-03 09h01.55.857312 +0530,
19,0,19,[np.float64(0.24861111111111112)],[np.float64(-0.18472222222222223)],[1],[0],[0],[1.4468999000018812],['Target'],19,0,19,0,32.22887899999478,,5,32.21832259999792,32.22887899999478,32.22887899999478,0.018763799998851027,33.66545329999644,[np.float64(0.24861111111111112)],[np.float64(-0.18472222222222223)],[1],[0],[0],[1.4468999000018812],['Target'],FOUR,001,2025-10-03_09h01.26.447,Visual Search Experiment,,2025.1.1,59.53794978701923,2025-10-03 09h01.55.857312 +0530,
20,0,20,[np.float64(0.011111111111111112)],[np.float64(0.11527777777777778)],[1],[0],[0],[1.4693048000044655],['Target'],20,0,20,0,33.71325219999562,,10,33.6950355999943,33.71325219999562,33.71325219999562,0.029456000003847294,35.16454139999405,[np.float64(0.011111111111111112)],[np.float64(0.11527777777777778)],[1],[0],[0],[1.4693048000044655],['Target'],FOUR,001,2025-10-03_09h01.26.447,Visual Search Experiment,,2025.1.1,59.53794978701923,2025-10-03 09h01.55.857312 +0530,
21,0,21,[np.float64(0.1763888888888889)],[np.float64(0.23472222222222222)],[1],[0],[0],[1.1399797999984003],['Target'],21,0,21,0,35.195433399996546,,5,35.175454099997296,35.195433399996546,35.195433399996546,0.010695400000258815,36.31559039999411,[np.float64(0.1763888888888889)],[np.float64(0.23472222222222222)],[1],[0],[0],[1.1399797999984003],['Target'],FOUR,001,2025-10-03_09h01.26.447,Visual Search Experiment,,2025.1.1,59.53794978701923,2025-10-03 09h01.55.857312 +0530,
22,0,22,[np.float64(0.004166666666666667)],[np.float64(-0.05416666666666667)],[1],[0],[0],[1.37150549999933],['Target'],22,0,22,0,36.345673899995745,,5,36.326165200000105,36.345673899995745,36.345673899995745,0.01048609999998007,37.697851699995226,[np.float64(0.004166666666666667)],[np.float64(-0.05416666666666667)],[1],[0],[0],[1.37150549999933],['Target'],FOUR,001,2025-10-03_09h01.26.447,Visual Search Experiment,,2025.1.1,59.53794978701923,2025-10-03 09h01.55.857312 +0530,
23,0,23,[np.float64(0.1125)],[np.float64(-0.29305555555555557)],[1],[0],[0],[1.3447162999946158],['Target'],23,0,23,0,37.74682489999395,,10,37.72028699999646,37.74682489999395,37.74682489999395,0.02234610000596149,39.06515049999871,[np.float64(0.1125)],[np.float64(-0.29305555555555557)],[1],[0],[0],[1.3447162999946158],['Target'],FOUR,001,2025-10-03_09h01.26.447,Visual Search Experiment,,2025.1.1,59.53794978701923,2025-10-03 09h01.55.857312 +0530,
24,0,24,[np.float64(0.225)],[np.float64(-0.07916666666666666)],[1],[0],[0],[1.1805574999962118],['Target'],24,0,24,0,39.095104299995,,10,39.08439340000041,39.095104299995,39.095104299995,0.019129599997540936,40.26515219999419,[np.float64(0.225)],[np.float64(-0.07916666666666666)],[1],[0],[0],[1.1805574999962118],['Target'],FOUR,001,2025-10-03_09h01.26.447,Visual Search Experiment,,2025.1.1,59.53794978701923,2025-10-03 09h01.55.857312 +0530,
25,0,25,[np.float64(-0.013888888888888888)],[np.float64(-0.1361111111111111)],[1],[0],[0],[1.2807485000012093],['Target'],25,0,25,0,40.29556120000052,,5,40.28389210000023,40.29556120000052,40.29556120000052,0.01853359999950044,41.56483739999385,[np.float64(-0.013888888888888888)],[np.float64(-0.1361111111111111)],[1],[0],[0],[1.2807485000012093],['Target'],FOUR,001,2025-10-03_09h01.26.447,Visual Search Experiment,,2025.1.1,59.53794978701923,2025-10-03 09h01.55.857312 +0530,
26,0,26,[np.float64(0.35)],[np.float64(-0.3680555555555556)],[1],[0],[0],[1.3524049000043306],['Target'],26,0,26,0,41.61263639999379,,10,41.59592529999645,41.61263639999379,41.61263639999379,0.03096390000428073,42.94856819999404,[np.float64(0.35)],[np.float64(-0.3680555555555556)],[1],[0],[0],[1.3524049000043306],['Target'],FOUR,001,2025-10-03_09h01.26.447,Visual Search Experiment,,2025.1.1,59.53794978701923,2025-10-03 09h01.55.857312 +0530,
27,0,27,[np.float64(0.38472222222222224)],[np.float64(-0.14583333333333334)],[1],[0],[0],[1.3000329999995301],['Target'],27,0,27,0,42.97847550000006,,5,42.9639240999968,42.97847550000006,42.97847550000006,0.01515800000197487,44.26412129999517,[np.float64(0.38472222222222224)],[np.float64(-0.14583333333333334)],[1],[0],[0],[1.3000329999995301],['Target'],FOUR,001,2025-10-03_09h01.26.447,Visual Search Experiment,,2025.1.1,59.53794978701923,2025-10-03 09h01.55.857312 +0530,
28,0,28,[np.float64(0.275)],[np.float64(-0.058333333333333334)],[1],[0],[0],[1.1285676000043168],['Target'],28,0,28,0,44.31232829999499,,10,44.285608799997135,44.31232829999499,44.31232829999499,0.021400900004664436,45.41433309999411,[np.float64(0.275)],[np.float64(-0.058333333333333334)],[1],[0],[0],[1.1285676000043168],['Target'],FOUR,001,2025-10-03_09h01.26.447,Visual Search Experiment,,2025.1.1,59.53794978701923,2025-10-03 09h01.55.857312 +0530,
29,0,29,[np.float64(-0.2875)],[np.float64(-0.11527777777777778)],[1],[0],[0],[1.576657300000079],['Target'],29,0,29,0,45.44479579999461,,5,45.4261336999989,45.44479579999461,45.44479579999461,0.011689300001307856,47.002995299997565,[np.float64(-0.2875)],[np.float64(-0.11527777777777778)],[1],[0],[0],[1.576657300000079],['Target'],FOUR,001,2025-10-03_09h01.26.447,Visual Search Experiment,,2025.1.1,59.53794978701923,2025-10-03 09h01.55.857312 +0530,
30,0,30,[np.float64(0.1)],[np.float64(-0.25416666666666665)],[1],[0],[0],[1.57511710000108],['Target'],30,0,30,0,47.0626118999935,,10,47.03793539999606,47.0626118999935,47.0626118999935,0.03479910000169184,48.613262699996994,[np.float64(0.1)],[np.float64(-0.25416666666666665)],[1],[0],[0],[1.57511710000108],['Target'],FOUR,001,2025-10-03_09h01.26.447,Visual Search Experiment,,2025.1.1,59.53794978701923,2025-10-03 09h01.55.857312 +0530,
31,0,31,[np.float64(-0.44166666666666665)],[np.float64(-0.46111111111111114)],[1],[0],[0],[1.60639089999313],['Target'],31,0,31,0,48.643809299996065,,5,48.623424599994905,48.643809299996065,48.643809299996065,0.010051099998236168,50.2299750999955,[np.float64(-0.44166666666666665)],[np.float64(-0.46111111111111114)],[1],[0],[0],[1.60639089999313],['Target'],FOUR,001,2025-10-03_09h01.26.447,Visual Search Experiment,,2025.1.1,59.53794978701923,2025-10-03 09h01.55.857312 +0530,
32,0,32,[np.float64(0.17083333333333334)],[np.float64(0.18611111111111112)],[1],[0],[0],[1.437850200003595],['Target'],32,0,32,0,50.26070489999984,,5,50.24208579999686,50.26070489999984,50.26070489999984,0.012021600006846711,51.68008989999362,[np.float64(0.17083333333333334)],[np.float64(0.18611111111111112)],[1],[0],[0],[1.437850200003595],['Target'],FOUR,001,2025-10-03_09h01.26.447,Visual Search Experiment,,2025.1.1,59.53794978701923,2025-10-03 09h01.55.857312 +0530,
33,0,33,[np.float64(0.14027777777777778)],[np.float64(-0.4027777777777778)],[1],[0],[0],[1.4032070000030217],['Target'],33,0,33,0,51.72842680000031,,10,51.70977329999732,51.72842680000031,51.72842680000031,0.029598400004033465,53.113155299994105,[np.float64(0.14027777777777778)],[np.float64(-0.4027777777777778)],[1],[0],[0],[1.4032070000030217],['Target'],FOUR,001,2025-10-03_09h01.26.447,Visual Search Experiment,,2025.1.1,59.53794978701923,2025-10-03 09h01.55.857312 +0530,
34,0,34,"[np.float64(0.37916666666666665), np.float64(0.3958333333333333)]","[np.float64(0.058333333333333334), np.float64(0.07222222222222222)]","[1, 1]","[0, 0]","[0, 0]","[1.3564270999995642, 2.273408000000927]","[None, 'Target']",34,0,34,0,53.14374339999631,,5,53.12252779999835,53.14374339999631,53.14374339999631,0.009274900003219955,55.39610979999998,"[np.float64(0.37916666666666665), np.float64(0.3958333333333333)]","[np.float64(0.058333333333333334), np.float64(0.07222222222222222)]","[1, 1]","[0, 0]","[0, 0]","[1.3564270999995642, 2.273408000000927]","[None, 'Target']",FOUR,001,2025-10-03_09h01.26.447,Visual Search Experiment,,2025.1.1,59.53794978701923,2025-10-03 09h01.55.857312 +0530,
35,0,35,[np.float64(-0.11527777777777778)],[np.float64(0.41388888888888886)],[1],[0],[0],[2.6565449999980046],['Target'],35,0,35,0,55.444108899995626,,10,55.423617899999954,55.444108899995626,55.444108899995626,0.027374500001315027,58.08037250000052,[np.float64(-0.11527777777777778)],[np.float64(0.41388888888888886)],[1],[0],[0],[2.6565449999980046],['Target'],FOUR,001,2025-10-03_09h01.26.447,Visual Search Experiment,,2025.1.1,59.53794978701923,2025-10-03 09h01.55.857312 +0530,
36,0,36,[np.float64(0.06527777777777778)],[np.float64(-0.2152777777777778)],[1],[0],[0],[1.7888310000053025],['Target'],36,0,36,0,58.12736639999639,,10,58.108566700000665,58.12736639999639,58.12736639999639,0.028021699996315874,59.89755270000023,[np.float64(0.06527777777777778)],[np.float64(-0.2152777777777778)],[1],[0],[0],[1.7888310000053025],['Target'],FOUR,001,2025-10-03_09h01.26.447,Visual Search Experiment,,2025.1.1,59.53794978701923,2025-10-03 09h01.55.857312 +0530,
37,0,37,[np.float64(0.23472222222222222)],[np.float64(0.20416666666666666)],[1],[0],[0],[1.6632523000007495],['Target'],37,0,37,0,59.93028629999753,,10,59.915220999995654,59.93028629999753,59.93028629999753,0.017561300002853386,61.578687599998375,[np.float64(0.23472222222222222)],[np.float64(0.20416666666666666)],[1],[0],[0],[1.6632523000007495],['Target'],FOUR,001,2025-10-03_09h01.26.447,Visual Search Experiment,,2025.1.1,59.53794978701923,2025-10-03 09h01.55.857312 +0530,
38,0,38,[np.float64(0.4444444444444444)],[np.float64(-0.10555555555555556)],[1],[0],[0],[1.412163300003158],['Target'],38,0,38,0,61.60915969999769,,10,61.598566599997866,61.60915969999769,61.60915969999769,0.01963619999878574,63.01086299999588,[np.float64(0.4444444444444444)],[np.float64(-0.10555555555555556)],[1],[0],[0],[1.412163300003158],['Target'],FOUR,001,2025-10-03_09h01.26.447,Visual Search Experiment,,2025.1.1,59.53794978701923,2025-10-03 09h01.55.857312 +0530,
39,0,39,[np.float64(-0.034722222222222224)],[np.float64(0.0875)],[1],[0],[0],[1.5504375000018626],['Target'],39,0,39,0,63.04289389999758,,10,63.027620599998045,63.04289389999758,63.04289389999758,0.01665849999699276,64.57820150000043,[np.float64(-0.034722222222222224)],[np.float64(0.0875)],[1],[0],[0],[1.5504375000018626],['Target'],FOUR,001,2025-10-03_09h01.26.447,Visual Search Experiment,,2025.1.1,59.53794978701923,2025-10-03 09h01.55.857312 +0530,
40,0,40,[np.float64(0.044444444444444446)],[np.float64(0.31805555555555554)],[1],[0],[0],[1.3165578000043752],['Target'],40,0,40,0,64.60931019999407,,10,64.5953251999963,64.60931019999407,64.60931019999407,0.017025499997544102,65.912024499994,[np.float64(0.044444444444444446)],[np.float64(0.31805555555555554)],[1],[0],[0],[1.3165578000043752],['Target'],FOUR,001,2025-10-03_09h01.26.447,Visual Search Experiment,,2025.1.1,59.53794978701923,2025-10-03 09h01.55.857312 +0530,
41,0,41,"[np.float64(0.4583333333333333), np.float64(0.4722222222222222)]","[np.float64(-0.0875), np.float64(-0.10277777777777777)]","[1, 1]","[0, 0]","[0, 0]","[1.2477574999938952, 1.946790099995269]","[None, 'Target']",41,0,41,0,65.94248259999586,,10,65.93087739999464,65.94248259999586,65.94248259999586,0.018752400006633252,67.87781179999729,"[np.float64(0.4583333333333333), np.float64(0.4722222222222222)]","[np.float64(-0.0875), np.float64(-0.10277777777777777)]","[1, 1]","[0, 0]","[0, 0]","[1.2477574999938952, 1.946790099995269]","[None, 'Target']",FOUR,001,2025-10-03_09h01.26.447,Visual Search Experiment,,2025.1.1,59.53794978701923,2025-10-03 09h01.55.857312 +0530,
42,0,42,[np.float64(0.18055555555555555)],[np.float64(0.20694444444444443)],[1],[0],[0],[1.239497399998072],['Target'],42,0,42,0,67.90913429999637,,5,67.88789249999536,67.90913429999637,67.90913429999637,0.009954500004823785,69.12752489999548,[np.float64(0.18055555555555555)],[np.float64(0.20694444444444443)],[1],[0],[0],[1.239497399998072],['Target'],FOUR,001,2025-10-03_09h01.26.447,Visual Search Experiment,,2025.1.1,59.53794978701923,2025-10-03 09h01.55.857312 +0530,
43,0,43,[np.float64(-0.2833333333333333)],[np.float64(0.020833333333333332)],[1],[0],[0],[1.3242211000033421],['Target'],43,0,43,0,69.15838899999653,,5,69.13705789999949,69.15838899999653,69.15838899999653,0.009448400000110269,70.4614134999938,[np.float64(-0.2833333333333333)],[np.float64(0.020833333333333332)],[1],[0],[0],[1.3242211000033421],['Target'],FOUR,001,2025-10-03_09h01.26.447,Visual Search Experiment,,2025.1.1,59.53794978701923,2025-10-03 09h01.55.857312 +0530,
44,0,44,"[np.float64(-0.3486111111111111), np.float64(-0.3638888888888889)]","[np.float64(0.05694444444444444), np.float64(0.03333333333333333)]","[1, 1]","[0, 0]","[0, 0]","[1.22230529999797, 1.9874428999974043]","[None, 'Target']",44,0,44,0,70.49206050000066,,5,70.47287539999525,70.49206050000066,70.49206050000066,0.011403399999835528,72.46055159999378,"[np.float64(-0.3486111111111111), np.float64(-0.3638888888888889)]","[np.float64(0.05694444444444444), np.float64(0.03333333333333333)]","[1, 1]","[0, 0]","[0, 0]","[1.22230529999797, 1.9874428999974043]","[None, 'Target']",FOUR,001,2025-10-03_09h01.26.447,Visual Search Experiment,,2025.1.1,59.53794978701923,2025-10-03 09h01.55.857312 +0530,
45,0,45,[np.float64(0.21805555555555556)],[np.float64(-0.33611111111111114)],[1],[0],[0],[1.4754910999981803],['Target'],45,0,45,0,72.50959209999564,,10,72.48540599999978,72.50959209999564,72.50959209999564,0.024622400000225753,73.96106099999452,[np.float64(0.21805555555555556)],[np.float64(-0.33611111111111114)],[1],[0],[0],[1.4754910999981803],['Target'],FOUR,001,2025-10-03_09h01.26.447,Visual Search Experiment,,2025.1.1,59.53794978701923,2025-10-03 09h01.55.857312 +0530,
46,0,46,[np.float64(0.22083333333333333)],[np.float64(-0.07916666666666666)],[1],[0],[0],[1.644389900000533],['Target'],46,0,46,0,74.00943079999706,,10,73.98275759999524,74.00943079999706,74.00943079999706,0.021568700001807883,75.6273297000007,[np.float64(0.22083333333333333)],[np.float64(-0.07916666666666666)],[1],[0],[0],[1.644389900000533],['Target'],FOUR,001,2025-10-03_09h01.26.447,Visual Search Experiment,,2025.1.1,59.53794978701923,2025-10-03 09h01.55.857312 +0530,
47,0,47,[np.float64(-0.19305555555555556)],[np.float64(0.15833333333333333)],[1],[0],[0],[1.4033657000036328],['Target'],47,0,47,0,75.65795509999589,,5,75.64081989999977,75.65795509999589,75.65795509999589,0.013335299998288974,77.04435249999369,[np.float64(-0.19305555555555556)],[np.float64(0.15833333333333333)],[1],[0],[0],[1.4033657000036328],['Target'],FOUR,001,2025-10-03_09h01.26.447,Visual Search Experiment,,2025.1.1,59.53794978701923,2025-10-03 09h01.55.857312 +0530,
48,0,48,"[np.float64(0.18194444444444444), np.float64(0.18472222222222223)]","[np.float64(-0.175), np.float64(-0.17916666666666667)]","[1, 1]","[0, 0]","[0, 0]","[1.4575138000000152, 2.34119759999885]","[None, 'Target']",48,0,48,0,77.09241320000001,,10,77.06907130000036,77.09241320000001,77.09241320000001,0.02464479999616742,79.41051319999679,"[np.float64(0.18194444444444444), np.float64(0.18472222222222223)]","[np.float64(-0.175), np.float64(-0.17916666666666667)]","[1, 1]","[0, 0]","[0, 0]","[1.4575138000000152, 2.34119759999885]","[None, 'Target']",FOUR,001,2025-10-03_09h01.26.447,Visual Search Experiment,,2025.1.1,59.53794978701923,2025-10-03 09h01.55.857312 +0530,
49,0,49,[np.float64(0.175)],[np.float64(-0.23055555555555557)],[1],[0],[0],[1.8403309999994235],['Target'],49,0,49,0,79.44267989999935,,5,79.42025739999372,79.44267989999935,79.44267989999935,0.009626400002161972,81.2607699999935,[np.float64(0.175)],[np.float64(-0.23055555555555557)],[1],[0],[0],[1.8403309999994235],['Target'],FOUR,001,2025-10-03_09h01.26.447,Visual Search Experiment,,2025.1.1,59.53794978701923,2025-10-03 09h01.55.857312 +0530,
50,0,50,"[np.float64(0.175), np.float64(-0.1527777777777778), np.float64(-0.14166666666666666)]","[np.float64(-0.23055555555555557), np.float64(-0.48333333333333334), np.float64(-0.4736111111111111)]","[1, 1, 1]","[0, 0, 0]","[0, 0, 0]","[0.2519707000028575, 1.5191871999995783, 2.419167899999593]","[None, None, 'Target']",50,0,50,0,81.29090729999734,,5,81.27394229999481,81.29090729999734,81.29090729999734,0.013032499999098945,83.69325329999992,"[np.float64(0.175), np.float64(-0.1527777777777778), np.float64(-0.14166666666666666)]","[np.float64(-0.23055555555555557), np.float64(-0.48333333333333334), np.float64(-0.4736111111111111)]","[1, 1, 1]","[0, 0, 0]","[0, 0, 0]","[0.2519707000028575, 1.5191871999995783, 2.419167899999593]","[None, None, 'Target']",FOUR,001,2025-10-03_09h01.26.447,Visual Search Experiment,,2025.1.1,59.53794978701923,2025-10-03 09h01.55.857312 +0530,
51,0,51,[np.float64(-0.059722222222222225)],[np.float64(0.22916666666666666)],[1],[0],[0],[1.456413200001407],['Target'],51,0,51,0,83.7239969000002,,5,83.70311269999365,83.7239969000002,83.7239969000002,0.009751699995831586,85.15965149999829,[np.float64(-0.059722222222222225)],[np.float64(0.22916666666666666)],[1],[0],[0],[1.456413200001407],['Target'],FOUR,001,2025-10-03_09h01.26.447,Visual Search Experiment,,2025.1.1,59.53794978701923,2025-10-03 09h01.55.857312 +0530,
52,0,52,"[np.float64(-0.4152777777777778), np.float64(-0.4375)]","[np.float64(-0.21944444444444444), np.float64(-0.20277777777777778)]","[1, 1]","[0, 0]","[0, 0]","[1.240939499999513, 2.2588008000020636]","[None, 'Target']",52,0,52,0,85.1908226999949,,5,85.16819369999575,85.1908226999949,85.1908226999949,0.008460199998808093,87.42712839999876,"[np.float64(-0.4152777777777778), np.float64(-0.4375)]","[np.float64(-0.21944444444444444), np.float64(-0.20277777777777778)]","[1, 1]","[0, 0]","[0, 0]","[1.240939499999513, 2.2588008000020636]","[None, 'Target']",FOUR,001,2025-10-03_09h01.26.447,Visual Search Experiment,,2025.1.1,59.53794978701923,2025-10-03 09h01.55.857312 +0530,
53,0,53,[np.float64(0.16111111111111112)],[np.float64(-0.45694444444444443)],[1],[0],[0],[1.4383664000051795],['Target'],53,0,53,0,87.45773879999615,,5,87.43803759999719,87.45773879999615,87.45773879999615,0.010835599998245016,88.87659649999841,[np.float64(0.16111111111111112)],[np.float64(-0.45694444444444443)],[1],[0],[0],[1.4383664000051795],['Target'],FOUR,001,2025-10-03_09h01.26.447,Visual Search Experiment,,2025.1.1,59.53794978701923,2025-10-03 09h01.55.857312 +0530,
54,0,54,[np.float64(-0.3416666666666667)],[np.float64(0.4166666666666667)],[1],[0],[0],[1.8073863000026904],['Target'],54,0,54,0,88.90669239999988,,5,88.88478249999753,88.90669239999988,88.90669239999988,0.008107100002234802,90.69230360000074,[np.float64(-0.3416666666666667)],[np.float64(0.4166666666666667)],[1],[0],[0],[1.8073863000026904],['Target'],FOUR,001,2025-10-03_09h01.26.447,Visual Search Experiment,,2025.1.1,59.53794978701923,2025-10-03 09h01.55.857312 +0530,
55,0,55,[np.float64(0.11388888888888889)],[np.float64(0.25277777777777777)],[1],[0],[0],[1.589214700004959],['Target'],55,0,55,0,90.72313269999722,,5,90.70229689999542,90.72313269999722,90.72313269999722,0.009899600001517683,92.29165629999625,[np.float64(0.11388888888888889)],[np.float64(0.25277777777777777)],[1],[0],[0],[1.589214700004959],['Target'],FOUR,001,2025-10-03_09h01.26.447,Visual Search Experiment,,2025.1.1,59.53794978701923,2025-10-03 09h01.55.857312 +0530,
56,0,56,[np.float64(-0.2777777777777778)],[np.float64(0.044444444444444446)],[1],[0],[0],[1.740044600002875],['Target'],56,0,56,0,92.3231622999956,,5,92.30160289999912,92.3231622999956,92.3231622999956,0.009872299997368827,94.04180359999737,[np.float64(-0.2777777777777778)],[np.float64(0.044444444444444446)],[1],[0],[0],[1.740044600002875],['Target'],FOUR,001,2025-10-03_09h01.26.447,Visual Search Experiment,,2025.1.1,59.53794978701923,2025-10-03 09h01.55.857312 +0530,
57,0,57,[np.float64(0.4388888888888889)],[np.float64(0.4513888888888889)],[1],[0],[0],[1.5925000999995973],['Target'],57,0,57,0,94.07268499999918,,5,94.05029379999905,94.07268499999918,94.07268499999918,0.008399199999985285,95.64302920000046,[np.float64(0.4388888888888889)],[np.float64(0.4513888888888889)],[1],[0],[0],[1.5925000999995973],['Target'],FOUR,001,2025-10-03_09h01.26.447,Visual Search Experiment,,2025.1.1,59.53794978701923,2025-10-03 09h01.55.857312 +0530,
58,0,58,[np.float64(0.3541666666666667)],[np.float64(-0.3875)],[1],[0],[0],[2.050402799999574],['Target'],58,0,58,0,95.69003749999683,,10,95.67457969999668,95.69003749999683,95.69003749999683,0.03136380000069039,97.7251346999983,[np.float64(0.3541666666666667)],[np.float64(-0.3875)],[1],[0],[0],[2.050402799999574],['Target'],FOUR,001,2025-10-03_09h01.26.447,Visual Search Experiment,,2025.1.1,59.53794978701923,2025-10-03 09h01.55.857312 +0530,
59,0,59,[np.float64(-0.325)],[np.float64(-0.25833333333333336)],[1],[0],[0],[1.274967800003651],['Target'],59,0,59,0,97.7559731999936,,5,97.73337299999548,97.7559731999936,97.7559731999936,0.00813919999927748,99.00847639999847,[np.float64(-0.325)],[np.float64(-0.25833333333333336)],[1],[0],[0],[1.274967800003651],['Target'],FOUR,001,2025-10-03_09h01.26.447,Visual Search Experiment,,2025.1.1,59.53794978701923,2025-10-03 09h01.55.857312 +0530,
60,0,60,[np.float64(-0.45555555555555555)],[np.float64(-0.20277777777777778)],[1],[0],[0],[1.4122784999999567],['Target'],60,0,60,0,99.05695829999604,,10,99.02976329999365,99.05695829999604,99.05695829999604,0.0212186000062502,100.44225489999371,[np.float64(-0.45555555555555555)],[np.float64(-0.20277777777777778)],[1],[0],[0],[1.4122784999999567],['Target'],FOUR,001,2025-10-03_09h01.26.447,Visual Search Experiment,,2025.1.1,59.53794978701923,2025-10-03 09h01.55.857312 +0530,
61,0,61,[np.float64(-0.20277777777777778)],[np.float64(-0.3763888888888889)],[1],[0],[0],[1.5756065000023227],['Target'],61,0,61,0,100.48993619999965,,10,100.46582219999982,100.48993619999965,100.48993619999965,0.02339390000270214,102.04159570000047,[np.float64(-0.20277777777777778)],[np.float64(-0.3763888888888889)],[1],[0],[0],[1.5756065000023227],['Target'],FOUR,001,2025-10-03_09h01.26.447,Visual Search Experiment,,2025.1.1,59.53794978701923,2025-10-03 09h01.55.857312 +0530,
62,0,62,[np.float64(0.2375)],[np.float64(-0.21666666666666667)],[1],[0],[0],[2.440709299997252],['Target'],62,0,62,0,102.09005559999787,,10,102.06688209999993,102.09005559999787,102.09005559999787,0.025184299993270542,104.50777379999636,[np.float64(0.2375)],[np.float64(-0.21666666666666667)],[1],[0],[0],[2.440709299997252],['Target'],FOUR,001,2025-10-03_09h01.26.447,Visual Search Experiment,,2025.1.1,59.53794978701923,2025-10-03 09h01.55.857312 +0530,
63,0,63,[np.float64(0.2972222222222222)],[np.float64(0.3111111111111111)],[1],[0],[0],[2.002999500000442],['Target'],63,0,63,0,104.55728029999591,,10,104.53815469999972,104.55728029999591,104.55728029999591,0.03026310000132071,106.54134139999951,[np.float64(0.2972222222222222)],[np.float64(0.3111111111111111)],[1],[0],[0],[2.002999500000442],['Target'],FOUR,001,2025-10-03_09h01.26.447,Visual Search Experiment,,2025.1.1,59.53794978701923,2025-10-03 09h01.55.857312 +0530,
64,0,64,[np.float64(-0.29583333333333334)],[np.float64(0.38333333333333336)],[1],[0],[0],[3.673003799995058],['Target'],64,0,64,0,106.57219439999608,,5,106.5518191999945,106.57219439999608,106.57219439999608,0.010365599999204278,110.22498899999482,[np.float64(-0.29583333333333334)],[np.float64(0.38333333333333336)],[1],[0],[0],[3.673003799995058],['Target'],FOUR,001,2025-10-03_09h01.26.447,Visual Search Experiment,,2025.1.1,59.53794978701923,2025-10-03 09h01.55.857312 +0530,
65,0,65,[np.float64(0.0875)],[np.float64(0.3638888888888889)],[1],[0],[0],[1.204682600000524],['Target'],65,0,65,0,110.25462219999463,,5,110.23584629999823,110.25462219999463,110.25462219999463,0.010780000004160684,111.4407171999992,[np.float64(0.0875)],[np.float64(0.3638888888888889)],[1],[0],[0],[1.204682600000524],['Target'],FOUR,001,2025-10-03_09h01.26.447,Visual Search Experiment,,2025.1.1,59.53794978701923,2025-10-03 09h01.55.857312 +0530,
66,0,66,[np.float64(0.0875)],[np.float64(0.45416666666666666)],[1],[0],[0],[1.3720481999989715],['Target'],66,0,66,0,111.47162409999873,,5,111.45182879999629,111.47162409999873,111.47162409999873,0.011022200000297744,112.82405009999638,[np.float64(0.0875)],[np.float64(0.45416666666666666)],[1],[0],[0],[1.3720481999989715],['Target'],FOUR,001,2025-10-03_09h01.26.447,Visual Search Experiment,,2025.1.1,59.53794978701923,2025-10-03 09h01.55.857312 +0530,
67,0,67,[np.float64(0.26666666666666666)],[np.float64(0.2222222222222222)],[1],[0],[0],[1.2040870999990148],['Target'],67,0,67,0,112.85472339999978,,5,112.83614329999546,112.85472339999978,112.85472339999978,0.012006700002530124,114.04038429999491,[np.float64(0.26666666666666666)],[np.float64(0.2222222222222222)],[1],[0],[0],[1.2040870999990148],['Target'],FOUR,001,2025-10-03_09h01.26.447,Visual Search Experiment,,2025.1.1,59.53794978701923,2025-10-03 09h01.55.857312 +0530,
68,0,68,[np.float64(-0.14583333333333334)],[np.float64(-0.3875)],[1],[0],[0],[1.8542892999976175],['Target'],68,0,68,0,114.07150239999464,,5,114.05292779999581,114.07150239999464,114.07150239999464,0.012455699994461611,115.9074271999998,[np.float64(-0.14583333333333334)],[np.float64(-0.3875)],[1],[0],[0],[1.8542892999976175],['Target'],FOUR,001,2025-10-03_09h01.26.447,Visual Search Experiment,,2025.1.1,59.53794978701923,2025-10-03 09h01.55.857312 +0530,
69,0,69,[np.float64(0.30416666666666664)],[np.float64(0.42777777777777776)],[1],[0],[0],[2.123461600000155],['Target'],69,0,69,0,115.95519399999466,,10,115.9324867999967,115.95519399999466,115.95519399999466,0.024815600001602434,118.05612119999569,[np.float64(0.30416666666666664)],[np.float64(0.42777777777777776)],[1],[0],[0],[2.123461600000155],['Target'],FOUR,001,2025-10-03_09h01.26.447,Visual Search Experiment,,2025.1.1,59.53794978701923,2025-10-03 09h01.55.857312 +0530,
70,0,70,[np.float64(0.43333333333333335)],[np.float64(-0.37916666666666665)],[1],[0],[0],[1.5824155000009341],['Target'],70,0,70,0,118.1234009999971,,10,118.09143249999761,118.1234009999971,118.1234009999971,0.035175500001059845,119.67411859999993,[np.float64(0.43333333333333335)],[np.float64(-0.37916666666666665)],[1],[0],[0],[1.5824155000009341],['Target'],FOUR,001,2025-10-03_09h01.26.447,Visual Search Experiment,,2025.1.1,59.53794978701923,2025-10-03 09h01.55.857312 +0530,
71,0,71,[np.float64(0.11944444444444445)],[np.float64(-0.35694444444444445)],[1],[0],[0],[1.4655270999937784],['Target'],71,0,71,0,119.70423499999742,,5,119.69025149999652,119.70423499999742,119.70423499999742,0.01593929999944521,121.15596129999903,[np.float64(0.11944444444444445)],[np.float64(-0.35694444444444445)],[1],[0],[0],[1.4655270999937784],['Target'],FOUR,001,2025-10-03_09h01.26.447,Visual Search Experiment,,2025.1.1,59.53794978701923,2025-10-03 09h01.55.857312 +0530,
72,0,72,[np.float64(-0.4125)],[np.float64(-0.19722222222222222)],[1],[0],[0],[1.2370372000004863],['Target'],72,0,72,0,121.20528159999958,,10,121.18632629999775,121.20528159999958,121.20528159999958,0.030255299992859364,122.42356499999732,[np.float64(-0.4125)],[np.float64(-0.19722222222222222)],[1],[0],[0],[1.2370372000004863],['Target'],FOUR,001,2025-10-03_09h01.26.447,Visual Search Experiment,,2025.1.1,59.53794978701923,2025-10-03 09h01.55.857312 +0530,
73,0,73,[np.float64(-0.04861111111111111)],[np.float64(-0.4583333333333333)],[1],[0],[0],[1.2154280999966431],['Target'],73,0,73,0,122.45390579999366,,5,122.44087369999761,122.45390579999366,122.45390579999366,0.017138799994427245,123.65649049999774,[np.float64(-0.04861111111111111)],[np.float64(-0.4583333333333333)],[1],[0],[0],[1.2154280999966431],['Target'],FOUR,001,2025-10-03_09h01.26.447,Visual Search Experiment,,2025.1.1,59.53794978701923,2025-10-03 09h01.55.857312 +0530,
74,0,74,[np.float64(0.008333333333333333)],[np.float64(-0.43333333333333335)],[1],[0],[0],[1.1513099000003422],['Target'],74,0,74,0,123.70430399999896,,10,123.67591639999591,123.70430399999896,123.70430399999896,0.019342999999935273,124.82744090000051,[np.float64(0.008333333333333333)],[np.float64(-0.43333333333333335)],[1],[0],[0],[1.1513099000003422],['Target'],FOUR,001,2025-10-03_09h01.26.447,Visual Search Experiment,,2025.1.1,59.53794978701923,2025-10-03 09h01.55.857312 +0530,
75,0,75,[np.float64(0.38472222222222224)],[np.float64(-0.125)],[1],[0],[0],[1.6595690000031027],['Target'],75,0,75,0,124.88870679999673,,10,124.86278839999432,124.88870679999673,124.88870679999673,0.035153600001649465,126.52255989999685,[np.float64(0.38472222222222224)],[np.float64(-0.125)],[1],[0],[0],[1.6595690000031027],['Target'],FOUR,001,2025-10-03_09h01.26.447,Visual Search Experiment,,2025.1.1,59.53794978701923,2025-10-03 09h01.55.857312 +0530,
76,0,76,[np.float64(0.43333333333333335)],[np.float64(0.1361111111111111)],[1],[0],[0],[1.1706589000023087],['Target'],76,0,76,0,126.55352409999614,,5,126.53513389999716,126.55352409999614,126.55352409999614,0.012459199999284465,127.70595379999577,[np.float64(0.43333333333333335)],[np.float64(0.1361111111111111)],[1],[0],[0],[1.1706589000023087],['Target'],FOUR,001,2025-10-03_09h01.26.447,Visual Search Experiment,,2025.1.1,59.53794978701923,2025-10-03 09h01.55.857312 +0530,
77,0,77,[np.float64(0.3625)],[np.float64(0.2708333333333333)],[1],[0],[0],[1.408032400002412],['Target'],77,0,77,0,127.7366619999957,,5,127.71587439999712,127.7366619999957,127.7366619999957,0.009835600001679268,129.1241144999949,[np.float64(0.3625)],[np.float64(0.2708333333333333)],[1],[0],[0],[1.408032400002412],['Target'],FOUR,001,2025-10-03_09h01.26.447,Visual Search Experiment,,2025.1.1,59.53794978701923,2025-10-03 09h01.55.857312 +0530,
78,0,78,[np.float64(0.3958333333333333)],[np.float64(0.23333333333333334)],[1],[0],[0],[1.287412800003949],['Target'],78,0,78,0,129.1533760999955,,5,129.13549570000032,129.1533760999955,129.1533760999955,0.011227999995753635,130.4230733000004,[np.float64(0.3958333333333333)],[np.float64(0.23333333333333334)],[1],[0],[0],[1.287412800003949],['Target'],FOUR,001,2025-10-03_09h01.26.447,Visual Search Experiment,,2025.1.1,59.53794978701923,2025-10-03 09h01.55.857312 +0530,
79,0,79,[np.float64(0.06111111111111111)],[np.float64(0.23055555555555557)],[1],[0],[0],[1.4086740000057034],['Target'],79,0,79,0,130.47037499999715,,10,130.44654729999456,130.47037499999715,130.47037499999715,0.023382999999739695,131.8554115999941,[np.float64(0.06111111111111111)],[np.float64(0.23055555555555557)],[1],[0],[0],[1.4086740000057034],['Target'],FOUR,001,2025-10-03_09h01.26.447,Visual Search Experiment,,2025.1.1,59.53794978701923,2025-10-03 09h01.55.857312 +0530,
80,0,80,[np.float64(-0.18333333333333332)],[np.float64(0.4486111111111111)],[1],[0],[0],[1.2699394000010216],['Target'],80,0,80,0,131.88630739999644,,5,131.87093439999444,131.88630739999644,131.88630739999644,0.015377800002170261,133.14109089999693,[np.float64(-0.18333333333333332)],[np.float64(0.4486111111111111)],[1],[0],[0],[1.2699394000010216],['Target'],FOUR,001,2025-10-03_09h01.26.447,Visual Search Experiment,,2025.1.1,59.53794978701923,2025-10-03 09h01.55.857312 +0530,
81,0,81,[np.float64(-0.19444444444444445)],[np.float64(0.2222222222222222)],[1],[0],[0],[1.4804615000030026],['Target'],81,0,81,0,133.20409999999538,,10,133.17449909999414,133.20409999999538,133.20409999999538,0.033281000003626104,134.65516179999395,[np.float64(-0.19444444444444445)],[np.float64(0.2222222222222222)],[1],[0],[0],[1.4804615000030026],['Target'],FOUR,001,2025-10-03_09h01.26.447,Visual Search Experiment,,2025.1.1,59.53794978701923,2025-10-03 09h01.55.857312 +0530,
82,0,82,[np.float64(-0.19305555555555556)],[np.float64(0.4041666666666667)],[1],[0],[0],[1.4071524000028148],['Target'],82,0,82,0,134.70348169999488,,10,134.68219079999835,134.70348169999488,134.70348169999488,0.026890999994066078,136.0895315999951,[np.float64(-0.19305555555555556)],[np.float64(0.4041666666666667)],[1],[0],[0],[1.4071524000028148],['Target'],FOUR,001,2025-10-03_09h01.26.447,Visual Search Experiment,,2025.1.1,59.53794978701923,2025-10-03 09h01.55.857312 +0530,
83,0,83,[np.float64(-0.059722222222222225)],[np.float64(-0.19027777777777777)],[1],[0],[0],[1.312051100001554],['Target'],83,0,83,0,136.13827769999625,,5,136.10932459999458,136.13827769999625,136.13827769999625,0.019656399999803398,137.42160239999794,[np.float64(-0.059722222222222225)],[np.float64(-0.19027777777777777)],[1],[0],[0],[1.312051100001554],['Target'],FOUR,001,2025-10-03_09h01.26.447,Visual Search Experiment,,2025.1.1,59.53794978701923,2025-10-03 09h01.55.857312 +0530,
84,0,84,[np.float64(0.3263888888888889)],[np.float64(0.40694444444444444)],[1],[0],[0],[1.5592243999999482],['Target'],84,0,84,0,137.4695614999946,,10,137.44608669999434,137.4695614999946,137.4695614999946,0.02438780000375118,139.0054930999977,[np.float64(0.3263888888888889)],[np.float64(0.40694444444444444)],[1],[0],[0],[1.5592243999999482],['Target'],FOUR,001,2025-10-03_09h01.26.447,Visual Search Experiment,,2025.1.1,59.53794978701923,2025-10-03 09h01.55.857312 +0530,
85,0,85,[np.float64(-0.1361111111111111)],[np.float64(0.35)],[1],[0],[0],[1.4867717000015546],['Target'],85,0,85,0,139.035467099995,,5,139.01771239999653,139.035467099995,139.035467099995,0.012053099999320693,140.50465070000064,[np.float64(-0.1361111111111111)],[np.float64(0.35)],[1],[0],[0],[1.4867717000015546],['Target'],FOUR,001,2025-10-03_09h01.26.447,Visual Search Experiment,,2025.1.1,59.53794978701923,2025-10-03 09h01.55.857312 +0530,
86,0,86,"[np.float64(0.4222222222222222), np.float64(0.4361111111111111)]","[np.float64(-0.12361111111111112), np.float64(-0.13194444444444445)]","[1, 1]","[0, 0]","[0, 0]","[1.4430646999971941, 2.2082707999943523]","[None, 'Target']",86,0,86,0,140.5527804999947,,10,140.52820199999405,140.5527804999947,140.5527804999947,0.023438199998054188,142.73671099999774,"[np.float64(0.4222222222222222), np.float64(0.4361111111111111)]","[np.float64(-0.12361111111111112), np.float64(-0.13194444444444445)]","[1, 1]","[0, 0]","[0, 0]","[1.4430646999971941, 2.2082707999943523]","[None, 'Target']",FOUR,001,2025-10-03_09h01.26.447,Visual Search Experiment,,2025.1.1,59.53794978701923,2025-10-03 09h01.55.857312 +0530,
87,0,87,[np.float64(0.07083333333333333)],[np.float64(0.04027777777777778)],[1],[0],[0],[1.7740516000048956],['Target'],87,0,87,0,142.7679547000007,,5,142.7490770000004,142.7679547000007,142.7679547000007,0.012190900000859983,144.52333989999897,[np.float64(0.07083333333333333)],[np.float64(0.04027777777777778)],[1],[0],[0],[1.7740516000048956],['Target'],FOUR,001,2025-10-03_09h01.26.447,Visual Search Experiment,,2025.1.1,59.53794978701923,2025-10-03 09h01.55.857312 +0530,
88,0,88,[np.float64(-0.4444444444444444)],[np.float64(-0.18333333333333332)],[1],[0],[0],[1.5975686999954632],['Target'],88,0,88,0,144.5522781999971,,5,144.54035920000024,144.5522781999971,144.5522781999971,0.01686179999524029,146.1380835999953,[np.float64(-0.4444444444444444)],[np.float64(-0.18333333333333332)],[1],[0],[0],[1.5975686999954632],['Target'],FOUR,001,2025-10-03_09h01.26.447,Visual Search Experiment,,2025.1.1,59.53794978701923,2025-10-03 09h01.55.857312 +0530,
89,0,89,[np.float64(0.06111111111111111)],[np.float64(-0.175)],[1],[0],[0],[1.2087108999985503],['Target'],89,0,89,0,146.18518489999406,,10,146.16189469999517,146.18518489999406,146.18518489999406,0.023683100000198465,147.37076839999645,[np.float64(0.06111111111111111)],[np.float64(-0.175)],[1],[0],[0],[1.2087108999985503],['Target'],FOUR,001,2025-10-03_09h01.26.447,Visual Search Experiment,,2025.1.1,59.53794978701923,2025-10-03 09h01.55.857312 +0530,
90,0,90,[np.float64(0.3277777777777778)],[np.float64(0.3486111111111111)],[1],[0],[0],[2.5296151000002283],['Target'],90,0,90,0,147.4007547000001,,10,147.39001909999934,147.4007547000001,147.4007547000001,0.019146499995258637,149.9197720999946,[np.float64(0.3277777777777778)],[np.float64(0.3486111111111111)],[1],[0],[0],[2.5296151000002283],['Target'],FOUR,001,2025-10-03_09h01.26.447,Visual Search Experiment,,2025.1.1,59.53794978701923,2025-10-03 09h01.55.857312 +0530,
91,0,91,[np.float64(-0.41388888888888886)],[np.float64(-0.30277777777777776)],[1],[0],[0],[1.2899385999990045],['Target'],91,0,91,0,149.95119539999723,,5,149.92949029999727,149.95119539999723,149.95119539999723,0.009620599994377699,151.21964119999757,[np.float64(-0.41388888888888886)],[np.float64(-0.30277777777777776)],[1],[0],[0],[1.2899385999990045],['Target'],FOUR,001,2025-10-03_09h01.26.447,Visual Search Experiment,,2025.1.1,59.53794978701923,2025-10-03 09h01.55.857312 +0530,
92,0,92,[np.float64(-0.08611111111111111)],[np.float64(0.17916666666666667)],[1],[0],[0],[1.2738632999971742],['Target'],92,0,92,0,151.25044440000056,,5,151.22920129999693,151.25044440000056,151.25044440000056,0.009378500006278045,152.50321909999911,[np.float64(-0.08611111111111111)],[np.float64(0.17916666666666667)],[1],[0],[0],[1.2738632999971742],['Target'],FOUR,001,2025-10-03_09h01.26.447,Visual Search Experiment,,2025.1.1,59.53794978701923,2025-10-03 09h01.55.857312 +0530,
93,0,93,[np.float64(-0.29583333333333334)],[np.float64(-0.011111111111111112)],[1],[0],[0],[1.0670402999967337],['Target'],93,0,93,0,152.53422709999722,,10,152.51957530000072,152.53422709999722,152.53422709999722,0.016266999999061227,153.58675909999874,[np.float64(-0.29583333333333334)],[np.float64(-0.011111111111111112)],[1],[0],[0],[1.0670402999967337],['Target'],FOUR,001,2025-10-03_09h01.26.447,Visual Search Experiment,,2025.1.1,59.53794978701923,2025-10-03 09h01.55.857312 +0530,
94,0,94,"[np.float64(0.37777777777777777), np.float64(0.3888888888888889)]","[np.float64(0.020833333333333332), np.float64(0.027777777777777776)]","[1, 1]","[0, 0]","[0, 0]","[1.4705291999998735, 2.2357540000011795]","[None, 'Target']",94,0,94,0,153.61718119999568,,5,153.60001609999745,153.61718119999568,153.61718119999568,0.013141199997335207,155.83590749999712,"[np.float64(0.37777777777777777), np.float64(0.3888888888888889)]","[np.float64(0.020833333333333332), np.float64(0.027777777777777776)]","[1, 1]","[0, 0]","[0, 0]","[1.4705291999998735, 2.2357540000011795]","[None, 'Target']",FOUR,001,2025-10-03_09h01.26.447,Visual Search Experiment,,2025.1.1,59.53794978701923,2025-10-03 09h01.55.857312 +0530,
95,0,95,[np.float64(0.14444444444444443)],[np.float64(-0.21944444444444444)],[1],[0],[0],[1.3824429000014788],['Target'],95,0,95,0,155.866672199998,,10,155.8550288999977,155.866672199998,155.866672199998,0.019028899994737003,157.23767319999752,[np.float64(0.14444444444444443)],[np.float64(-0.21944444444444444)],[1],[0],[0],[1.3824429000014788],['Target'],FOUR,001,2025-10-03_09h01.26.447,Visual Search Experiment,,2025.1.1,59.53794978701923,2025-10-03 09h01.55.857312 +0530,
96,0,96,[np.float64(-0.3125)],[np.float64(-0.21666666666666667)],[1],[0],[0],[1.4204112000006717],['Target'],96,0,96,0,157.2665377999947,,5,157.24831629999971,157.2665377999947,157.2665377999947,0.010397699996246956,158.66887409999617,[np.float64(-0.3125)],[np.float64(-0.21666666666666667)],[1],[0],[0],[1.4204112000006717],['Target'],FOUR,001,2025-10-03_09h01.26.447,Visual Search Experiment,,2025.1.1,59.53794978701923,2025-10-03 09h01.55.857312 +0530,
97,0,97,[np.float64(-0.027777777777777776)],[np.float64(0.23055555555555557)],[1],[0],[0],[1.3509072000015294],['Target'],97,0,97,0,158.7008216999966,,10,158.68533949999983,158.7008216999966,158.7008216999966,0.01638719999755267,160.03639199999452,[np.float64(-0.027777777777777776)],[np.float64(0.23055555555555557)],[1],[0],[0],[1.3509072000015294],['Target'],FOUR,001,2025-10-03_09h01.26.447,Visual Search Experiment,,2025.1.1,59.53794978701923,2025-10-03 09h01.55.857312 +0530,
98,0,98,[np.float64(0.20555555555555555)],[np.float64(-0.3013888888888889)],[1],[0],[0],[1.987178600000334],['Target'],98,0,98,0,160.0666299999939,,5,160.04865319999953,160.0666299999939,160.0666299999939,0.0121482999966247,162.0360092999981,[np.float64(0.20555555555555555)],[np.float64(-0.3013888888888889)],[1],[0],[0],[1.987178600000334],['Target'],FOUR,001,2025-10-03_09h01.26.447,Visual Search Experiment,,2025.1.1,59.53794978701923,2025-10-03 09h01.55.857312 +0530,
99,0,99,[np.float64(0.28055555555555556)],[np.float64(-0.425)],[1],[0],[0],[1.9538707000028808],['Target'],99,0,99,0,162.06650489999447,,5,162.0474938999978,162.06650489999447,162.06650489999447,0.011398599999665748,164.0015069000001,[np.float64(0.28055555555555556)],[np.float64(-0.425)],[1],[0],[0],[1.9538707000028808],['Target'],FOUR,001,2025-10-03_09h01.26.447,Visual Search Experiment,,2025.1.1,59.53794978701923,2025-10-03 09h01.55.857312 +0530,
100,0,100,[np.float64(0.23333333333333334)],[np.float64(-0.45694444444444443)],[1],[0],[0],[1.9574034999968717],['Target'],100,0,100,0,164.03257199999643,,5,164.01144579999527,164.03257199999643,164.03257199999643,0.00985680000303546,165.96900059999462,[np.float64(0.23333333333333334)],[np.float64(-0.45694444444444443)],[1],[0],[0],[1.9574034999968717],['Target'],FOUR,001,2025-10-03_09h01.26.447,Visual Search Experiment,,2025.1.1,59.53794978701923,2025-10-03 09h01.55.857312 +0530,
101,0,101,[np.float64(0.21805555555555556)],[np.float64(0.32916666666666666)],[1],[0],[0],[1.601706199995533],['Target'],101,0,101,0,165.99981489999482,,5,165.9821656999993,165.99981489999482,165.99981489999482,0.013075399998342618,167.58408969999437,[np.float64(0.21805555555555556)],[np.float64(0.32916666666666666)],[1],[0],[0],[1.601706199995533],['Target'],FOUR,001,2025-10-03_09h01.26.447,Visual Search Experiment,,2025.1.1,59.53794978701923,2025-10-03 09h01.55.857312 +0530,
102,0,102,[np.float64(-0.07222222222222222)],[np.float64(0.2986111111111111)],[1],[0],[0],[1.142204399999173],['Target'],102,0,102,0,167.61618839999574,,5,167.59348939999472,167.61618839999574,167.61618839999574,0.009314799994172063,168.7358282999994,[np.float64(-0.07222222222222222)],[np.float64(0.2986111111111111)],[1],[0],[0],[1.142204399999173],['Target'],FOUR,001,2025-10-03_09h01.26.447,Visual Search Experiment,,2025.1.1,59.53794978701923,2025-10-03 09h01.55.857312 +0530,
103,0,103,[np.float64(0.37083333333333335)],[np.float64(0.24027777777777778)],[1],[0],[0],[1.229174600004626],['Target'],103,0,103,0,168.76553719999356,,10,168.75461469999573,168.76553719999356,168.76553719999356,0.018705599999520928,169.9839251999947,[np.float64(0.37083333333333335)],[np.float64(0.24027777777777778)],[1],[0],[0],[1.229174600004626],['Target'],FOUR,001,2025-10-03_09h01.26.447,Visual Search Experiment,,2025.1.1,59.53794978701923,2025-10-03 09h01.55.857312 +0530,
104,0,104,[np.float64(0.37083333333333335)],[np.float64(0.4722222222222222)],[1],[0],[0],[1.3658394000012777],['Target'],104,0,104,0,170.01558739999746,,10,170.00242059999437,170.01558739999746,170.01558739999746,0.018396700004814193,171.3683910999971,[np.float64(0.37083333333333335)],[np.float64(0.4722222222222222)],[1],[0],[0],[1.3658394000012777],['Target'],FOUR,001,2025-10-03_09h01.26.447,Visual Search Experiment,,2025.1.1,59.53794978701923,2025-10-03 09h01.55.857312 +0530,
105,0,105,[np.float64(-0.05416666666666667)],[np.float64(-0.38055555555555554)],[1],[0],[0],[1.657988099999784],['Target'],105,0,105,0,171.39874149999378,,5,171.37657219999528,171.39874149999378,171.39874149999378,0.008100099999865051,173.03471079999872,[np.float64(-0.05416666666666667)],[np.float64(-0.38055555555555554)],[1],[0],[0],[1.657988099999784],['Target'],FOUR,001,2025-10-03_09h01.26.447,Visual Search Experiment,,2025.1.1,59.53794978701923,2025-10-03 09h01.55.857312 +0530,
106,0,106,[np.float64(-0.19722222222222222)],[np.float64(0.3527777777777778)],[1],[0],[0],[2.3381674000047497],['Target'],106,0,106,0,173.06525529999635,,10,173.05279419999715,173.06525529999635,173.06525529999635,0.017997399998421315,175.39126769999712,[np.float64(-0.19722222222222222)],[np.float64(0.3527777777777778)],[1],[0],[0],[2.3381674000047497],['Target'],FOUR,001,2025-10-03_09h01.26.447,Visual Search Experiment,,2025.1.1,59.53794978701923,2025-10-03 09h01.55.857312 +0530,
107,0,107,[np.float64(0.28055555555555556)],[np.float64(0.48333333333333334)],[1],[0],[0],[1.468028700001014],['Target'],107,0,107,0,175.43303849999938,,5,175.4158815999981,175.43303849999938,175.43303849999938,0.024353100001462735,176.8841542999944,[np.float64(0.28055555555555556)],[np.float64(0.48333333333333334)],[1],[0],[0],[1.468028700001014],['Target'],FOUR,001,2025-10-03_09h01.26.447,Visual Search Experiment,,2025.1.1,59.53794978701923,2025-10-03 09h01.55.857312 +0530,
108,0,108,[np.float64(0.4847222222222222)],[np.float64(-0.4305555555555556)],[1],[0],[0],[1.373188300000038],['Target'],108,0,108,0,176.91493849999824,,5,176.89336170000024,176.91493849999824,176.91493849999824,0.009123399999225512,178.2666917999959,[np.float64(0.4847222222222222)],[np.float64(-0.4305555555555556)],[1],[0],[0],[1.373188300000038],['Target'],FOUR,001,2025-10-03_09h01.26.447,Visual Search Experiment,,2025.1.1,59.53794978701923,2025-10-03 09h01.55.857312 +0530,
109,0,109,[np.float64(-0.041666666666666664)],[np.float64(-0.22361111111111112)],[1],[0],[0],[1.1063348000025144],['Target'],109,0,109,0,178.29804909999802,,5,178.27711989999807,178.29804909999802,178.29804909999802,0.010316600004443899,179.3835978999996,[np.float64(-0.041666666666666664)],[np.float64(-0.22361111111111112)],[1],[0],[0],[1.1063348000025144],['Target'],FOUR,001,2025-10-03_09h01.26.447,Visual Search Experiment,,2025.1.1,59.53794978701923,2025-10-03 09h01.55.857312 +0530,
110,0,110,[np.float64(0.2569444444444444)],[np.float64(0.2625)],[1],[0],[0],[1.3050115999940317],['Target'],110,0,110,0,179.41484849999688,,5,179.3953842999981,179.41484849999688,179.41484849999688,0.011719000001903623,180.70056710000063,[np.float64(0.2569444444444444)],[np.float64(0.2625)],[1],[0],[0],[1.3050115999940317],['Target'],FOUR,001,2025-10-03_09h01.26.447,Visual Search Experiment,,2025.1.1,59.53794978701923,2025-10-03 09h01.55.857312 +0530,
111,0,111,[np.float64(0.03194444444444444)],[np.float64(0.4486111111111111)],[1],[0],[0],[1.189329100001487],['Target'],111,0,111,0,180.7309105999957,,5,180.7111109999969,180.7309105999957,180.7309105999957,0.010467000000062399,181.90058649999992,[np.float64(0.03194444444444444)],[np.float64(0.4486111111111111)],[1],[0],[0],[1.189329100001487],['Target'],FOUR,001,2025-10-03_09h01.26.447,Visual Search Experiment,,2025.1.1,59.53794978701923,2025-10-03 09h01.55.857312 +0530,
112,0,112,[np.float64(-0.4847222222222222)],[np.float64(0.44722222222222224)],[1],[0],[0],[1.4787738000013633],['Target'],112,0,112,0,181.93087419999938,,10,181.92014129999734,181.93087419999938,181.93087419999938,0.01947410000138916,183.39904729999398,[np.float64(-0.4847222222222222)],[np.float64(0.44722222222222224)],[1],[0],[0],[1.4787738000013633],['Target'],FOUR,001,2025-10-03_09h01.26.447,Visual Search Experiment,,2025.1.1,59.53794978701923,2025-10-03 09h01.55.857312 +0530,
113,0,113,[np.float64(-0.15)],[np.float64(0.2902777777777778)],[1],[0],[0],[1.4257265999985975],['Target'],113,0,113,0,183.4307409999965,,5,183.40787029999774,183.4307409999965,183.4307409999965,0.00872660000459291,184.8337406999999,[np.float64(-0.15)],[np.float64(0.2902777777777778)],[1],[0],[0],[1.4257265999985975],['Target'],FOUR,001,2025-10-03_09h01.26.447,Visual Search Experiment,,2025.1.1,59.53794978701923,2025-10-03 09h01.55.857312 +0530,
114,0,114,[np.float64(0.38055555555555554)],[np.float64(0.38055555555555554)],[1],[0],[0],[1.457918600004632],['Target'],114,0,114,0,184.88235010000062,,10,184.85875469999883,184.88235010000062,184.88235010000062,0.024936599998909514,186.31690809999418,[np.float64(0.38055555555555554)],[np.float64(0.38055555555555554)],[1],[0],[0],[1.457918600004632],['Target'],FOUR,001,2025-10-03_09h01.26.447,Visual Search Experiment,,2025.1.1,59.53794978701923,2025-10-03 09h01.55.857312 +0530,
115,0,115,[np.float64(-0.45416666666666666)],[np.float64(-0.4361111111111111)],[1],[0],[0],[1.9310573999973712],['Target'],115,0,115,0,186.34694079999463,,10,186.33539839999867,186.34694079999463,186.34694079999463,0.018348300000070594,188.26660499999707,[np.float64(-0.45416666666666666)],[np.float64(-0.4361111111111111)],[1],[0],[0],[1.9310573999973712],['Target'],FOUR,001,2025-10-03_09h01.26.447,Visual Search Experiment,,2025.1.1,59.53794978701923,2025-10-03 09h01.55.857312 +0530,
116,0,116,[np.float64(-0.4597222222222222)],[np.float64(-0.14444444444444443)],[1],[0],[0],[1.4743668000010075],['Target'],116,0,116,0,188.3144672999988,,10,188.29139769999892,188.3144672999988,188.3144672999988,0.024675300002854783,189.7659266999981,[np.float64(-0.4597222222222222)],[np.float64(-0.14444444444444443)],[1],[0],[0],[1.4743668000010075],['Target'],FOUR,001,2025-10-03_09h01.26.447,Visual Search Experiment,,2025.1.1,59.53794978701923,2025-10-03 09h01.55.857312 +0530,
117,0,117,"[np.float64(-0.36944444444444446), np.float64(-0.37083333333333335)]","[np.float64(0.4888888888888889), np.float64(0.46805555555555556)]","[1, 1]","[0, 0]","[0, 0]","[2.072951000001922, 2.8049508000040078]","[None, 'Target']",117,0,117,0,189.79720899999666,,5,189.77657469999394,189.79720899999666,189.79720899999666,0.010528899998462293,192.58169349999662,"[np.float64(-0.36944444444444446), np.float64(-0.37083333333333335)]","[np.float64(0.4888888888888889), np.float64(0.46805555555555556)]","[1, 1]","[0, 0]","[0, 0]","[2.072951000001922, 2.8049508000040078]","[None, 'Target']",FOUR,001,2025-10-03_09h01.26.447,Visual Search Experiment,,2025.1.1,59.53794978701923,2025-10-03 09h01.55.857312 +0530,
118,0,118,[np.float64(0.08194444444444444)],[np.float64(0.4305555555555556)],[1],[0],[0],[1.0582720000020345],['Target'],118,0,118,0,192.63006299999688,,10,192.60664189999807,192.63006299999688,192.63006299999688,0.024811100003717,193.6650637999992,[np.float64(0.08194444444444444)],[np.float64(0.4305555555555556)],[1],[0],[0],[1.0582720000020345],['Target'],FOUR,001,2025-10-03_09h01.26.447,Visual Search Experiment,,2025.1.1,59.53794978701923,2025-10-03 09h01.55.857312 +0530,
119,0,119,"[np.float64(0.2611111111111111), np.float64(0.2652777777777778)]","[np.float64(0.31527777777777777), np.float64(0.3194444444444444)]","[1, 1]","[0, 0]","[0, 0]","[0.9804103000060422, 1.7699095000061789]","[None, 'Target']",119,0,119,0,193.6963764999964,,10,193.68450269999448,193.6963764999964,193.6963764999964,0.01933870000357274,195.4546046999967,"[np.float64(0.2611111111111111), np.float64(0.2652777777777778)]","[np.float64(0.31527777777777777), np.float64(0.3194444444444444)]","[1, 1]","[0, 0]","[0, 0]","[0.9804103000060422, 1.7699095000061789]","[None, 'Target']",FOUR,001,2025-10-03_09h01.26.447,Visual Search Experiment,,2025.1.1,59.53794978701923,2025-10-03 09h01.55.857312 +0530,
120,0,120,[np.float64(-0.1875)],[np.float64(0.35833333333333334)],[1],[0],[0],[1.1339347000030102],['Target'],120,0,120,0,195.497128899995,,10,195.4817541999946,195.497128899995,195.497128899995,0.027002100003301166,196.61583439999959,[np.float64(-0.1875)],[np.float64(0.35833333333333334)],[1],[0],[0],[1.1339347000030102],['Target'],FOUR,001,2025-10-03_09h01.26.447,Visual Search Experiment,,2025.1.1,59.53794978701923,2025-10-03 09h01.55.857312 +0530,
121,0,121,[np.float64(0.45416666666666666)],[np.float64(0.20694444444444443)],[1],[0],[0],[1.155790500000876],['Target'],121,0,121,0,196.6462709999978,,5,196.62602250000054,196.6462709999978,196.6462709999978,0.010095099998579826,197.78197469999577,[np.float64(0.45416666666666666)],[np.float64(0.20694444444444443)],[1],[0],[0],[1.155790500000876],['Target'],FOUR,001,2025-10-03_09h01.26.447,Visual Search Experiment,,2025.1.1,59.53794978701923,2025-10-03 09h01.55.857312 +0530,
122,0,122,[np.float64(0.07361111111111111)],[np.float64(-0.12638888888888888)],[1],[0],[0],[1.8488672000021324],['Target'],122,0,122,0,197.81267110000044,,10,197.79952709999634,197.81267110000044,197.81267110000044,0.017467999998189043,199.64857299999858,[np.float64(0.07361111111111111)],[np.float64(-0.12638888888888888)],[1],[0],[0],[1.8488672000021324],['Target'],FOUR,001,2025-10-03_09h01.26.447,Visual Search Experiment,,2025.1.1,59.53794978701923,2025-10-03 09h01.55.857312 +0530,
123,0,123,[np.float64(-0.3819444444444444)],[np.float64(-0.49027777777777776)],[1],[0],[0],[1.721828399997321],['Target'],123,0,123,0,199.67952119999973,,5,199.6601759999976,199.67952119999973,199.67952119999973,0.011484599999675993,201.38217639999493,[np.float64(-0.3819444444444444)],[np.float64(-0.49027777777777776)],[1],[0],[0],[1.721828399997321],['Target'],FOUR,001,2025-10-03_09h01.26.447,Visual Search Experiment,,2025.1.1,59.53794978701923,2025-10-03 09h01.55.857312 +0530,
124,0,124,"[np.float64(-0.26805555555555555), np.float64(-0.25416666666666665)]","[np.float64(-0.05416666666666667), np.float64(-0.06527777777777778)]","[1, 1]","[0, 0]","[0, 0]","[1.0543159000008018, 1.9366988999972818]","[None, 'Target']",124,0,124,0,201.41400459999568,,5,201.39382230000047,201.41400459999568,201.41400459999568,0.011544900000444613,203.330658699997,"[np.float64(-0.26805555555555555), np.float64(-0.25416666666666665)]","[np.float64(-0.05416666666666667), np.float64(-0.06527777777777778)]","[1, 1]","[0, 0]","[0, 0]","[1.0543159000008018, 1.9366988999972818]","[None, 'Target']",FOUR,001,2025-10-03_09h01.26.447,Visual Search Experiment,,2025.1.1,59.53794978701923,2025-10-03 09h01.55.857312 +0530,
125,0,125,"[np.float64(-0.25), np.float64(-0.24444444444444444)]","[np.float64(0.3194444444444444), np.float64(0.32083333333333336)]","[1, 1]","[0, 0]","[0, 0]","[1.5641233999995166, 2.596720400004415]","[None, 'Target']",125,0,125,0,203.36203009999736,,10,203.35019479999755,203.36203009999736,203.36203009999736,0.01932459999807179,205.94709189999412,"[np.float64(-0.25), np.float64(-0.24444444444444444)]","[np.float64(0.3194444444444444), np.float64(0.32083333333333336)]","[1, 1]","[0, 0]","[0, 0]","[1.5641233999995166, 2.596720400004415]","[None, 'Target']",FOUR,001,2025-10-03_09h01.26.447,Visual Search Experiment,,2025.1.1,59.53794978701923,2025-10-03 09h01.55.857312 +0530,
126,0,126,[np.float64(0.3416666666666667)],[np.float64(-0.006944444444444444)],[1],[0],[0],[1.5151583000042592],['Target'],126,0,126,0,205.97863009999855,,10,205.9664843999999,205.97863009999855,205.97863009999855,0.019141700002364814,207.48178429999825,[np.float64(0.3416666666666667)],[np.float64(-0.006944444444444444)],[1],[0],[0],[1.5151583000042592],['Target'],FOUR,001,2025-10-03_09h01.26.447,Visual Search Experiment,,2025.1.1,59.53794978701923,2025-10-03 09h01.55.857312 +0530,
127,0,127,[np.float64(0.4263888888888889)],[np.float64(0.37916666666666665)],[1],[0],[0],[1.6402817999987747],['Target'],127,0,127,0,207.52916919999552,,10,207.50783809999848,207.52916919999552,207.52916919999552,0.02594130000215955,209.14833499999804,[np.float64(0.4263888888888889)],[np.float64(0.37916666666666665)],[1],[0],[0],[1.6402817999987747],['Target'],FOUR,001,2025-10-03_09h01.26.447,Visual Search Experiment,,2025.1.1,59.53794978701923,2025-10-03 09h01.55.857312 +0530,
128,0,128,[np.float64(0.22916666666666666)],[np.float64(-0.25555555555555554)],[1],[0],[0],[2.1566931000052136],['Target'],128,0,128,0,209.17786949999572,,5,209.1578395999968,209.17786949999572,209.17786949999572,0.009405099997820798,211.31467809999594,[np.float64(0.22916666666666666)],[np.float64(-0.25555555555555554)],[1],[0],[0],[2.1566931000052136],['Target'],FOUR,001,2025-10-03_09h01.26.447,Visual Search Experiment,,2025.1.1,59.53794978701923,2025-10-03 09h01.55.857312 +0530,
129,0,129,[np.float64(0.4388888888888889)],[np.float64(0.08194444444444444)],[1],[0],[0],[1.2916445000009844],['Target'],129,0,129,0,211.36231029999908,,10,211.33906019999995,211.36231029999908,211.36231029999908,0.024292300004162826,212.63087489999452,[np.float64(0.4388888888888889)],[np.float64(0.08194444444444444)],[1],[0],[0],[1.2916445000009844],['Target'],FOUR,001,2025-10-03_09h01.26.447,Visual Search Experiment,,2025.1.1,59.53794978701923,2025-10-03 09h01.55.857312 +0530,
130,0,130,[np.float64(-0.40694444444444444)],[np.float64(-0.1111111111111111)],[1],[0],[0],[1.4548906000054558],['Target'],130,0,130,0,212.66164719999506,,5,212.64269199999399,212.66164719999506,212.66164719999506,0.011703799995302688,214.09775219999574,[np.float64(-0.40694444444444444)],[np.float64(-0.1111111111111111)],[1],[0],[0],[1.4548906000054558],['Target'],FOUR,001,2025-10-03_09h01.26.447,Visual Search Experiment,,2025.1.1,59.53794978701923,2025-10-03 09h01.55.857312 +0530,
131,0,131,[np.float64(0.12638888888888888)],[np.float64(-0.21388888888888888)],[1],[0],[0],[1.1555455999987316],['Target'],131,0,131,0,214.14548359999753,,10,214.12416780000058,214.14548359999753,214.14548359999753,0.02632650000305148,215.27986899999814,[np.float64(0.12638888888888888)],[np.float64(-0.21388888888888888)],[1],[0],[0],[1.1555455999987316],['Target'],FOUR,001,2025-10-03_09h01.26.447,Visual Search Experiment,,2025.1.1,59.53794978701923,2025-10-03 09h01.55.857312 +0530,
132,0,132,[np.float64(-0.2013888888888889)],[np.float64(0.14722222222222223)],[1],[0],[0],[1.1814902000041911],['Target'],132,0,132,0,215.31106799999543,,10,215.2988944999961,215.31106799999543,215.31106799999543,0.018925899996247608,216.48053849999997,[np.float64(-0.2013888888888889)],[np.float64(0.14722222222222223)],[1],[0],[0],[1.1814902000041911],['Target'],FOUR,001,2025-10-03_09h01.26.447,Visual Search Experiment,,2025.1.1,59.53794978701923,2025-10-03 09h01.55.857312 +0530,
133,0,133,[np.float64(0.18888888888888888)],[np.float64(0.19027777777777777)],[1],[0],[0],[1.9501108000040404],['Target'],133,0,133,0,216.51107239999692,,10,216.49758189999557,216.51107239999692,216.51107239999692,0.01692439999897033,218.4478583999953,[np.float64(0.18888888888888888)],[np.float64(0.19027777777777777)],[1],[0],[0],[1.9501108000040404],['Target'],FOUR,001,2025-10-03_09h01.26.447,Visual Search Experiment,,2025.1.1,59.53794978701923,2025-10-03 09h01.55.857312 +0530,
134,0,134,[np.float64(0.4527777777777778)],[np.float64(-0.2916666666666667)],[1],[0],[0],[1.7039480000021285],['Target'],134,0,134,0,218.47758969999995,,5,218.4591287000003,218.47758969999995,218.47758969999995,0.011126700002932921,220.16322199999559,[np.float64(0.4527777777777778)],[np.float64(-0.2916666666666667)],[1],[0],[0],[1.7039480000021285],['Target'],FOUR,001,2025-10-03_09h01.26.447,Visual Search Experiment,,2025.1.1,59.53794978701923,2025-10-03 09h01.55.857312 +0530,
135,0,135,[np.float64(0.15)],[np.float64(-0.3333333333333333)],[1],[0],[0],[1.729763899995305],['Target'],135,0,135,0,220.1935106999954,,10,220.1834108999974,220.1935106999954,220.1935106999954,0.020104999995965045,221.91331340000033,[np.float64(0.15)],[np.float64(-0.3333333333333333)],[1],[0],[0],[1.729763899995305],['Target'],FOUR,001,2025-10-03_09h01.26.447,Visual Search Experiment,,2025.1.1,59.53794978701923,2025-10-03 09h01.55.857312 +0530,
136,0,136,[np.float64(0.09027777777777778)],[np.float64(0.1361111111111111)],[1],[0],[0],[1.2560553000002983],['Target'],136,0,136,0,221.9437212999983,,5,221.92331849999755,221.9437212999983,221.9437212999983,0.009904099999403115,223.17950700000074,[np.float64(0.09027777777777778)],[np.float64(0.1361111111111111)],[1],[0],[0],[1.2560553000002983],['Target'],FOUR,001,2025-10-03_09h01.26.447,Visual Search Experiment,,2025.1.1,59.53794978701923,2025-10-03 09h01.55.857312 +0530,
137,0,137,"[np.float64(0.2777777777777778), np.float64(0.35)]","[np.float64(-0.48055555555555557), np.float64(-0.4666666666666667)]","[1, 1]","[0, 0]","[0, 0]","[0.8996822000044631, 1.665392000002612]","[None, 'Target']",137,0,137,0,223.2102850999945,,10,223.19641289999709,223.2102850999945,223.2102850999945,0.01682289999735076,224.8619378999938,"[np.float64(0.2777777777777778), np.float64(0.35)]","[np.float64(-0.48055555555555557), np.float64(-0.4666666666666667)]","[1, 1]","[0, 0]","[0, 0]","[0.8996822000044631, 1.665392000002612]","[None, 'Target']",FOUR,001,2025-10-03_09h01.26.447,Visual Search Experiment,,2025.1.1,59.53794978701923,2025-10-03 09h01.55.857312 +0530,
138,0,138,[np.float64(0.45416666666666666)],[np.float64(-0.2833333333333333)],[1],[0],[0],[1.6114109999980428],['Target'],138,0,138,0,224.91477009999653,,10,224.88662130000012,224.91477009999653,224.91477009999653,0.024620900003355928,226.49832539999625,[np.float64(0.45416666666666666)],[np.float64(-0.2833333333333333)],[1],[0],[0],[1.6114109999980428],['Target'],FOUR,001,2025-10-03_09h01.26.447,Visual Search Experiment,,2025.1.1,59.53794978701923,2025-10-03 09h01.55.857312 +0530,
139,0,139,[np.float64(0.4125)],[np.float64(0.0375)],[1],[0],[0],[1.3987065999972401],['Target'],139,0,139,0,226.52654849999817,,5,226.51381629999378,226.52654849999817,226.52654849999817,0.015432899999723304,227.9127382999941,[np.float64(0.4125)],[np.float64(0.0375)],[1],[0],[0],[1.3987065999972401],['Target'],FOUR,001,2025-10-03_09h01.26.447,Visual Search Experiment,,2025.1.1,59.53794978701923,2025-10-03 09h01.55.857312 +0530,
140,0,140,[np.float64(0.44305555555555554)],[np.float64(0.14444444444444443)],[1],[0],[0],[1.3391046000033384],['Target'],140,0,140,0,227.9426772999941,,5,227.9227455999935,227.9426772999941,227.9426772999941,0.009925899998052046,229.26199029999407,[np.float64(0.44305555555555554)],[np.float64(0.14444444444444443)],[1],[0],[0],[1.3391046000033384],['Target'],FOUR,001,2025-10-03_09h01.26.447,Visual Search Experiment,,2025.1.1,59.53794978701923,2025-10-03 09h01.55.857312 +0530,
141,0,141,[np.float64(-0.3)],[np.float64(0.2152777777777778)],[1],[0],[0],[1.872833699999319],['Target'],141,0,141,0,229.377178799994,,5,229.27275910000026,229.377178799994,229.377178799994,0.010690700000850484,231.14576959999977,[np.float64(-0.3)],[np.float64(0.2152777777777778)],[1],[0],[0],[1.872833699999319],['Target'],FOUR,001,2025-10-03_09h01.26.447,Visual Search Experiment,,2025.1.1,59.53794978701923,2025-10-03 09h01.55.857312 +0530,
142,0,142,[np.float64(0.22083333333333333)],[np.float64(0.4666666666666667)],[1],[0],[0],[1.4228372999932617],['Target'],142,0,142,0,231.1757776999948,,5,231.15505499999563,231.1757776999948,231.1757776999948,0.009166199997707736,232.5780304,[np.float64(0.22083333333333333)],[np.float64(0.4666666666666667)],[1],[0],[0],[1.4228372999932617],['Target'],FOUR,001,2025-10-03_09h01.26.447,Visual Search Experiment,,2025.1.1,59.53794978701923,2025-10-03 09h01.55.857312 +0530,
143,0,143,[np.float64(-0.25277777777777777)],[np.float64(0.24861111111111112)],[1],[0],[0],[1.2967208999980357],['Target'],143,0,143,0,232.60928319999948,,10,232.5975524999958,232.60928319999948,232.60928319999948,0.01944060000096215,233.8944066999975,[np.float64(-0.25277777777777777)],[np.float64(0.24861111111111112)],[1],[0],[0],[1.2967208999980357],['Target'],FOUR,001,2025-10-03_09h01.26.447,Visual Search Experiment,,2025.1.1,59.53794978701923,2025-10-03 09h01.55.857312 +0530,
144,0,144,[np.float64(-0.03333333333333333)],[np.float64(0.4097222222222222)],[1],[0],[0],[1.415061899999273],['Target'],144,0,144,0,233.92540849999932,,10,233.91302789999463,233.92540849999932,233.92540849999932,0.0185228000045754,235.32822479999595,[np.float64(-0.03333333333333333)],[np.float64(0.4097222222222222)],[1],[0],[0],[1.415061899999273],['Target'],FOUR,001,2025-10-03_09h01.26.447,Visual Search Experiment,,2025.1.1,59.53794978701923,2025-10-03 09h01.55.857312 +0530,
145,0,145,[np.float64(-0.4)],[np.float64(0.18194444444444444)],[1],[0],[0],[1.763238999999885],['Target'],145,0,145,0,235.35886169999867,,10,235.34863579999364,235.35886169999867,235.35886169999867,0.020297200004279148,237.11207889999787,[np.float64(-0.4)],[np.float64(0.18194444444444444)],[1],[0],[0],[1.763238999999885],['Target'],FOUR,001,2025-10-03_09h01.26.447,Visual Search Experiment,,2025.1.1,59.53794978701923,2025-10-03 09h01.55.857312 +0530,
146,0,146,[np.float64(0.26666666666666666)],[np.float64(0.38472222222222224)],[1],[0],[0],[1.1862294999955338],['Target'],146,0,146,0,237.14208130000043,,5,237.12453509999614,237.14208130000043,237.14208130000043,0.012311400001635775,238.3109678999972,[np.float64(0.26666666666666666)],[np.float64(0.38472222222222224)],[1],[0],[0],[1.1862294999955338],['Target'],FOUR,001,2025-10-03_09h01.26.447,Visual Search Experiment,,2025.1.1,59.53794978701923,2025-10-03 09h01.55.857312 +0530,
147,0,147,[np.float64(-0.20694444444444443)],[np.float64(0.48333333333333334)],[1],[0],[0],[1.507679200003622],['Target'],147,0,147,0,238.34172179999587,,5,238.32011000000057,238.34172179999587,238.34172179999587,0.00906119999854127,239.82792399999744,[np.float64(-0.20694444444444443)],[np.float64(0.48333333333333334)],[1],[0],[0],[1.507679200003622],['Target'],FOUR,001,2025-10-03_09h01.26.447,Visual Search Experiment,,2025.1.1,59.53794978701923,2025-10-03 09h01.55.857312 +0530,
148,0,148,[np.float64(-0.45)],[np.float64(0.32916666666666666)],[1],[0],[0],[1.2328762000033748],['Target'],148,0,148,0,239.8598034999959,,10,239.8460494999963,239.8598034999959,239.8598034999959,0.01802480000333162,241.07908540000062,[np.float64(-0.45)],[np.float64(0.32916666666666666)],[1],[0],[0],[1.2328762000033748],['Target'],FOUR,001,2025-10-03_09h01.26.447,Visual Search Experiment,,2025.1.1,59.53794978701923,2025-10-03 09h01.55.857312 +0530,
149,0,149,[np.float64(0.19027777777777777)],[np.float64(-0.1486111111111111)],[1],[0],[0],[1.2756530999977258],['Target'],149,0,149,0,241.10874389999663,,5,241.08855709999625,241.10874389999663,241.10874389999663,0.009363600001961458,242.36443579999468,[np.float64(0.19027777777777777)],[np.float64(-0.1486111111111111)],[1],[0],[0],[1.2756530999977258],['Target'],FOUR,001,2025-10-03_09h01.26.447,Visual Search Experiment,,2025.1.1,59.53794978701923,2025-10-03 09h01.55.857312 +0530,
150,0,150,[np.float64(-0.45694444444444443)],[np.float64(-0.4083333333333333)],[1],[0],[0],[1.8841498000037973],['Target'],150,0,150,0,242.40915709999535,,10,242.38385559999733,242.40915709999535,242.40915709999535,0.01922760000161361,244.26834049999889,[np.float64(-0.45694444444444443)],[np.float64(-0.4083333333333333)],[1],[0],[0],[1.8841498000037973],['Target'],FOUR,001,2025-10-03_09h01.26.447,Visual Search Experiment,,2025.1.1,59.53794978701923,2025-10-03 09h01.55.857312 +0530,
151,0,151,[np.float64(0.04027777777777778)],[np.float64(-0.17777777777777778)],[1],[0],[0],[1.5229227999952855],['Target'],151,0,151,0,244.32588509999914,,10,244.30451549999998,244.32588509999914,244.32588509999914,0.03589340000326047,245.8276562999963,[np.float64(0.04027777777777778)],[np.float64(-0.17777777777777778)],[1],[0],[0],[1.5229227999952855],['Target'],FOUR,001,2025-10-03_09h01.26.447,Visual Search Experiment,,2025.1.1,59.53794978701923,2025-10-03 09h01.55.857312 +0530,
152,0,152,[np.float64(0.30694444444444446)],[np.float64(0.17222222222222222)],[1],[0],[0],[1.2870581000024686],['Target'],152,0,152,0,245.85821099999885,,5,245.839882399996,245.85821099999885,245.85821099999885,0.012113300006603822,247.12711560000025,[np.float64(0.30694444444444446)],[np.float64(0.17222222222222222)],[1],[0],[0],[1.2870581000024686],['Target'],FOUR,001,2025-10-03_09h01.26.447,Visual Search Experiment,,2025.1.1,59.53794978701923,2025-10-03 09h01.55.857312 +0530,
153,0,153,[np.float64(0.2569444444444444)],[np.float64(0.2638888888888889)],[1],[0],[0],[1.058119200002693],['Target'],153,0,153,0,247.15882899999997,,5,247.140776799999,247.15882899999997,247.15882899999997,0.013540100000682287,248.19914649999555,[np.float64(0.2569444444444444)],[np.float64(0.2638888888888889)],[1],[0],[0],[1.058119200002693],['Target'],FOUR,001,2025-10-03_09h01.26.447,Visual Search Experiment,,2025.1.1,59.53794978701923,2025-10-03 09h01.55.857312 +0530,
154,0,154,[np.float64(0.14027777777777778)],[np.float64(0.42916666666666664)],[1],[0],[0],[1.209532600005332],['Target'],154,0,154,0,248.24201059999905,,5,248.21703789999447,248.24201059999905,248.24201059999905,0.017733000000589527,249.42676469999424,[np.float64(0.14027777777777778)],[np.float64(0.42916666666666664)],[1],[0],[0],[1.209532600005332],['Target'],FOUR,001,2025-10-03_09h01.26.447,Visual Search Experiment,,2025.1.1,59.53794978701923,2025-10-03 09h01.55.857312 +0530,
155,0,155,"[np.float64(0.33055555555555555), np.float64(0.35555555555555557)]","[np.float64(0.05), np.float64(0.06388888888888888)]","[1, 1]","[0, 0]","[0, 0]","[1.339823800000886, 2.140028699999675]","[None, 'Target']",155,0,155,0,249.45771029999742,,5,249.43622129999858,249.45771029999742,249.45771029999742,0.009377599999425001,251.57639930000005,"[np.float64(0.33055555555555555), np.float64(0.35555555555555557)]","[np.float64(0.05), np.float64(0.06388888888888888)]","[1, 1]","[0, 0]","[0, 0]","[1.339823800000886, 2.140028699999675]","[None, 'Target']",FOUR,001,2025-10-03_09h01.26.447,Visual Search Experiment,,2025.1.1,59.53794978701923,2025-10-03 09h01.55.857312 +0530,
156,0,156,"[np.float64(0.09861111111111111), np.float64(0.11527777777777778)]","[np.float64(0.10555555555555556), np.float64(0.09861111111111111)]","[1, 1]","[0, 0]","[0, 0]","[1.3239131000009365, 2.158166200002597]","[None, 'Target']",156,0,156,0,251.6252386999986,,10,251.60195319999912,251.6252386999986,251.6252386999986,0.025459500000579283,253.76026799999818,"[np.float64(0.09861111111111111), np.float64(0.11527777777777778)]","[np.float64(0.10555555555555556), np.float64(0.09861111111111111)]","[1, 1]","[0, 0]","[0, 0]","[1.3239131000009365, 2.158166200002597]","[None, 'Target']",FOUR,001,2025-10-03_09h01.26.447,Visual Search Experiment,,2025.1.1,59.53794978701923,2025-10-03 09h01.55.857312 +0530,
157,0,157,[np.float64(-0.08194444444444444)],[np.float64(-0.23055555555555557)],[1],[0],[0],[1.5007601999968756],['Target'],157,0,157,0,253.79161419999582,,10,253.7783161999978,253.79161419999582,253.79161419999582,0.017929700006789062,255.27927009999985,[np.float64(-0.08194444444444444)],[np.float64(-0.23055555555555557)],[1],[0],[0],[1.5007601999968756],['Target'],FOUR,001,2025-10-03_09h01.26.447,Visual Search Experiment,,2025.1.1,59.53794978701923,2025-10-03 09h01.55.857312 +0530,
158,0,158,[np.float64(0.1)],[np.float64(-0.28055555555555556)],[1],[0],[0],[1.0193863999957102],['Target'],158,0,158,0,255.3077231999996,,5,255.29170529999828,255.3077231999996,255.3077231999996,0.012289700003748294,256.3112966999979,[np.float64(0.1)],[np.float64(-0.28055555555555556)],[1],[0],[0],[1.0193863999957102],['Target'],FOUR,001,2025-10-03_09h01.26.447,Visual Search Experiment,,2025.1.1,59.53794978701923,2025-10-03 09h01.55.857312 +0530,
159,0,159,[np.float64(-0.030555555555555555)],[np.float64(0.05277777777777778)],[1],[0],[0],[1.4343375000025844],['Target'],159,0,159,0,256.35794599999645,,10,256.34086569999636,256.35794599999645,256.35794599999645,0.029349099997489247,257.77535469999566,[np.float64(-0.030555555555555555)],[np.float64(0.05277777777777778)],[1],[0],[0],[1.4343375000025844],['Target'],FOUR,001,2025-10-03_09h01.26.447,Visual Search Experiment,,2025.1.1,59.53794978701923,2025-10-03 09h01.55.857312 +0530,
160,0,160,[np.float64(-0.36944444444444446)],[np.float64(0.0375)],[1],[0],[0],[1.7501670000056038],['Target'],160,0,160,0,257.8066480999987,,10,257.79575179999665,257.8066480999987,257.8066480999987,0.020288599997002166,259.54613779999636,[np.float64(-0.36944444444444446)],[np.float64(0.0375)],[1],[0],[0],[1.7501670000056038],['Target'],FOUR,001,2025-10-03_09h01.26.447,Visual Search Experiment,,2025.1.1,59.53794978701923,2025-10-03 09h01.55.857312 +0530,
161,0,161,[np.float64(0.15)],[np.float64(-0.36527777777777776)],[1],[0],[0],[1.6184711000023526],['Target'],161,0,161,0,259.5911055999968,,10,259.57388649999484,259.5911055999968,259.5911055999968,0.027570899997954257,261.19256199999654,[np.float64(0.15)],[np.float64(-0.36527777777777776)],[1],[0],[0],[1.6184711000023526],['Target'],FOUR,001,2025-10-03_09h01.26.447,Visual Search Experiment,,2025.1.1,59.53794978701923,2025-10-03 09h01.55.857312 +0530,
162,0,162,"[np.float64(0.4305555555555556), np.float64(0.4305555555555556)]","[np.float64(-0.44027777777777777), np.float64(-0.44722222222222224)]","[1, 1]","[0, 0]","[0, 0]","[1.3225401000017882, 2.1084912000005716]","[None, 'Target']",162,0,162,0,261.2231324999957,,5,261.20178839999426,261.2231324999957,261.2231324999957,0.009118699999817181,263.31045489999815,"[np.float64(0.4305555555555556), np.float64(0.4305555555555556)]","[np.float64(-0.44027777777777777), np.float64(-0.44722222222222224)]","[1, 1]","[0, 0]","[0, 0]","[1.3225401000017882, 2.1084912000005716]","[None, 'Target']",FOUR,001,2025-10-03_09h01.26.447,Visual Search Experiment,,2025.1.1,59.53794978701923,2025-10-03 09h01.55.857312 +0530,
163,0,163,[np.float64(0.48194444444444445)],[np.float64(-0.39305555555555555)],[1],[0],[0],[1.0382071000058204],['Target'],163,0,163,0,263.3747169999988,,10,263.3532787000004,263.3747169999988,263.3747169999988,0.04266020000068238,264.3916659999959,[np.float64(0.48194444444444445)],[np.float64(-0.39305555555555555)],[1],[0],[0],[1.0382071000058204],['Target'],FOUR,001,2025-10-03_09h01.26.447,Visual Search Experiment,,2025.1.1,59.53794978701923,2025-10-03 09h01.55.857312 +0530,
164,0,164,[np.float64(0.07777777777777778)],[np.float64(-0.4152777777777778)],[1],[0],[0],[1.169868699995277],['Target'],164,0,164,0,264.4405880999984,,10,264.4218340000007,264.4405880999984,264.4405880999984,0.029973600001540035,265.5919298999943,[np.float64(0.07777777777777778)],[np.float64(-0.4152777777777778)],[1],[0],[0],[1.169868699995277],['Target'],FOUR,001,2025-10-03_09h01.26.447,Visual Search Experiment,,2025.1.1,59.53794978701923,2025-10-03 09h01.55.857312 +0530,
165,0,165,[np.float64(0.09444444444444444)],[np.float64(0.1763888888888889)],[1],[0],[0],[1.5669287999990047],['Target'],165,0,165,0,265.62242879999394,,10,265.6091377999983,265.62242879999394,265.62242879999394,0.017106200000853278,267.17623209999874,[np.float64(0.09444444444444444)],[np.float64(0.1763888888888889)],[1],[0],[0],[1.5669287999990047],['Target'],FOUR,001,2025-10-03_09h01.26.447,Visual Search Experiment,,2025.1.1,59.53794978701923,2025-10-03 09h01.55.857312 +0530,
166,0,166,[np.float64(-0.12638888888888888)],[np.float64(0.2708333333333333)],[1],[0],[0],[1.2700018999967142],['Target'],166,0,166,0,267.2064720999988,,5,267.188450499998,267.2064720999988,267.2064720999988,0.01209240000025602,268.45862320000015,[np.float64(-0.12638888888888888)],[np.float64(0.2708333333333333)],[1],[0],[0],[1.2700018999967142],['Target'],FOUR,001,2025-10-03_09h01.26.447,Visual Search Experiment,,2025.1.1,59.53794978701923,2025-10-03 09h01.55.857312 +0530,
167,0,167,[np.float64(0.325)],[np.float64(0.20972222222222223)],[1],[0],[0],[1.2416290999972261],['Target'],167,0,167,0,268.48949439999706,,5,268.46773059999396,268.48949439999706,268.48949439999706,0.0090247999978601,269.70953179999924,[np.float64(0.325)],[np.float64(0.20972222222222223)],[1],[0],[0],[1.2416290999972261],['Target'],FOUR,001,2025-10-03_09h01.26.447,Visual Search Experiment,,2025.1.1,59.53794978701923,2025-10-03 09h01.55.857312 +0530,
168,0,168,[np.float64(0.2625)],[np.float64(-0.21944444444444444)],[1],[0],[0],[1.9494997000001604],['Target'],168,0,168,0,269.7395741,,5,269.72483649999776,269.7395741,269.7395741,0.015169300000707153,271.6744819999949,[np.float64(0.2625)],[np.float64(-0.21944444444444444)],[1],[0],[0],[1.9494997000001604],['Target'],FOUR,001,2025-10-03_09h01.26.447,Visual Search Experiment,,2025.1.1,59.53794978701923,2025-10-03 09h01.55.857312 +0530,
169,0,169,[np.float64(0.1388888888888889)],[np.float64(-0.11944444444444445)],[1],[0],[0],[1.6650182999946992],['Target'],169,0,169,0,271.70529839999654,,10,271.69399779999367,271.70529839999654,271.70529839999654,0.019436399998085108,273.35921699999744,[np.float64(0.1388888888888889)],[np.float64(-0.11944444444444445)],[1],[0],[0],[1.6650182999946992],['Target'],FOUR,001,2025-10-03_09h01.26.447,Visual Search Experiment,,2025.1.1,59.53794978701923,2025-10-03 09h01.55.857312 +0530,
170,0,170,[np.float64(0.4583333333333333)],[np.float64(0.2611111111111111)],[1],[0],[0],[1.6453401999970083],['Target'],170,0,170,0,273.40723949999665,,5,273.3797937999989,273.40723949999665,273.40723949999665,0.020414200000232086,275.02539719999913,[np.float64(0.4583333333333333)],[np.float64(0.2611111111111111)],[1],[0],[0],[1.6453401999970083],['Target'],FOUR,001,2025-10-03_09h01.26.447,Visual Search Experiment,,2025.1.1,59.53794978701923,2025-10-03 09h01.55.857312 +0530,
171,0,171,[np.float64(0.14305555555555555)],[np.float64(-0.1597222222222222)],[1],[0],[0],[2.0431090999991284],['Target'],171,0,171,0,275.08973819999665,,10,275.06462929999543,275.08973819999665,275.08973819999665,0.03910350000660401,277.1079482999994,[np.float64(0.14305555555555555)],[np.float64(-0.1597222222222222)],[1],[0],[0],[2.0431090999991284],['Target'],FOUR,001,2025-10-03_09h01.26.447,Visual Search Experiment,,2025.1.1,59.53794978701923,2025-10-03 09h01.55.857312 +0530,
172,0,172,[np.float64(0.2652777777777778)],[np.float64(-0.375)],[1],[0],[0],[1.6314611000052537],['Target'],172,0,172,0,277.13921729999856,,10,277.1260351999954,277.13921729999856,277.13921729999856,0.017991799999435898,278.7576874000006,[np.float64(0.2652777777777778)],[np.float64(-0.375)],[1],[0],[0],[1.6314611000052537],['Target'],FOUR,001,2025-10-03_09h01.26.447,Visual Search Experiment,,2025.1.1,59.53794978701923,2025-10-03 09h01.55.857312 +0530,
173,0,173,[np.float64(0.06527777777777778)],[np.float64(-0.1597222222222222)],[1],[0],[0],[1.2658366000032402],['Target'],173,0,173,0,278.78795790000004,,10,278.7761098999981,278.78795790000004,278.78795790000004,0.018318400005227886,280.04208229999495,[np.float64(0.06527777777777778)],[np.float64(-0.1597222222222222)],[1],[0],[0],[1.2658366000032402],['Target'],FOUR,001,2025-10-03_09h01.26.447,Visual Search Experiment,,2025.1.1,59.53794978701923,2025-10-03 09h01.55.857312 +0530,
174,0,174,[np.float64(0.10972222222222222)],[np.float64(0.4125)],[1],[0],[0],[1.6225305999978445],['Target'],174,0,174,0,280.0711308999962,,5,280.0505694999956,280.0711308999962,280.0711308999962,0.008392099996854085,281.67325100000016,[np.float64(0.10972222222222222)],[np.float64(0.4125)],[1],[0],[0],[1.6225305999978445],['Target'],FOUR,001,2025-10-03_09h01.26.447,Visual Search Experiment,,2025.1.1,59.53794978701923,2025-10-03 09h01.55.857312 +0530,
175,0,175,[np.float64(-0.2875)],[np.float64(-0.06944444444444445)],[1],[0],[0],[1.5638847000009264],['Target'],175,0,175,0,281.70453329999873,,10,281.69228479999583,281.70453329999873,281.70453329999873,0.018948700002511032,283.2563160999998,[np.float64(-0.2875)],[np.float64(-0.06944444444444445)],[1],[0],[0],[1.5638847000009264],['Target'],FOUR,001,2025-10-03_09h01.26.447,Visual Search Experiment,,2025.1.1,59.53794978701923,2025-10-03 09h01.55.857312 +0530,
176,0,176,[np.float64(-0.10694444444444444)],[np.float64(-0.3861111111111111)],[1],[0],[0],[1.424244900001213],['Target'],176,0,176,0,283.28748300000007,,5,283.2656668999989,283.28748300000007,283.28748300000007,0.009241400002792943,284.690047899996,[np.float64(-0.10694444444444444)],[np.float64(-0.3861111111111111)],[1],[0],[0],[1.424244900001213],['Target'],FOUR,001,2025-10-03_09h01.26.447,Visual Search Experiment,,2025.1.1,59.53794978701923,2025-10-03 09h01.55.857312 +0530,
177,0,177,[np.float64(-0.48055555555555557)],[np.float64(-0.11388888888888889)],[1],[0],[0],[1.3283016999994288],['Target'],177,0,177,0,284.72082229999796,,5,284.69880899999407,284.72082229999796,284.72082229999796,0.008677499994519167,286.0272870999979,[np.float64(-0.48055555555555557)],[np.float64(-0.11388888888888889)],[1],[0],[0],[1.3283016999994288],['Target'],FOUR,001,2025-10-03_09h01.26.447,Visual Search Experiment,,2025.1.1,59.53794978701923,2025-10-03 09h01.55.857312 +0530,
178,0,178,[np.float64(0.15)],[np.float64(0.41805555555555557)],[1],[0],[0],[1.3312379000053625],['Target'],178,0,178,0,286.0899594999937,,10,286.05971750000026,286.0899594999937,286.0899594999937,0.03234309999970719,287.3911336999954,[np.float64(0.15)],[np.float64(0.41805555555555557)],[1],[0],[0],[1.3312379000053625],['Target'],FOUR,001,2025-10-03_09h01.26.447,Visual Search Experiment,,2025.1.1,59.53794978701923,2025-10-03 09h01.55.857312 +0530,
179,0,179,"[np.float64(0.15), np.float64(0.43472222222222223)]","[np.float64(0.41805555555555557), np.float64(0.15833333333333333)]","[1, 1]","[0, 0]","[0, 0]","[0.24525799999537412, 1.331188199997996]","[None, 'Target']",179,0,179,0,287.43906559999596,,5,287.4129436000003,287.43906559999596,287.43906559999596,0.021692000002076384,288.7445774999942,"[np.float64(0.15), np.float64(0.43472222222222223)]","[np.float64(0.41805555555555557), np.float64(0.15833333333333333)]","[1, 1]","[0, 0]","[0, 0]","[0.24525799999537412, 1.331188199997996]","[None, 'Target']",FOUR,001,2025-10-03_09h01.26.447,Visual Search Experiment,,2025.1.1,59.53794978701923,2025-10-03 09h01.55.857312 +0530,
180,0,180,"[np.float64(0.3472222222222222), np.float64(0.3125), np.float64(0.3138888888888889)]","[np.float64(-0.1986111111111111), np.float64(-0.12916666666666668), np.float64(-0.15694444444444444)]","[1, 1, 1]","[0, 0, 0]","[0, 0, 0]","[1.969586100000015, 3.1881200000061654, 3.970576900006563]","[None, None, 'Target']",180,0,180,0,288.82390060000034,,10,288.7869114999994,288.82390060000034,288.82390060000034,0.041947600002458785,292.7577904999998,"[np.float64(0.3472222222222222), np.float64(0.3125), np.float64(0.3138888888888889)]","[np.float64(-0.1986111111111111), np.float64(-0.12916666666666668), np.float64(-0.15694444444444444)]","[1, 1, 1]","[0, 0, 0]","[0, 0, 0]","[1.969586100000015, 3.1881200000061654, 3.970576900006563]","[None, None, 'Target']",FOUR,001,2025-10-03_09h01.26.447,Visual Search Experiment,,2025.1.1,59.53794978701923,2025-10-03 09h01.55.857312 +0530,
181,0,181,"[np.float64(-0.38333333333333336), np.float64(-0.36944444444444446)]","[np.float64(-0.4388888888888889), np.float64(-0.4375)]","[1, 1]","[0, 0]","[0, 0]","[1.6743449999994482, 2.6414049999948475]","[None, 'Target']",181,0,181,0,292.8221249999988,,10,292.7989327999967,292.8221249999988,292.8221249999988,0.0409014999968349,295.4406019999951,"[np.float64(-0.38333333333333336), np.float64(-0.36944444444444446)]","[np.float64(-0.4388888888888889), np.float64(-0.4375)]","[1, 1]","[0, 0]","[0, 0]","[1.6743449999994482, 2.6414049999948475]","[None, 'Target']",FOUR,001,2025-10-03_09h01.26.447,Visual Search Experiment,,2025.1.1,59.53794978701923,2025-10-03 09h01.55.857312 +0530,
182,0,182,[np.float64(-0.3958333333333333)],[np.float64(0.4847222222222222)],[1],[0],[0],[3.1266185999993468],['Target'],182,0,182,0,295.5048405999987,,10,295.47965389999445,295.5048405999987,295.5048405999987,0.03878219999751309,298.60648899999796,[np.float64(-0.3958333333333333)],[np.float64(0.4847222222222222)],[1],[0],[0],[3.1266185999993468],['Target'],FOUR,001,2025-10-03_09h01.26.447,Visual Search Experiment,,2025.1.1,59.53794978701923,2025-10-03 09h01.55.857312 +0530,
183,0,183,[np.float64(-0.4236111111111111)],[np.float64(-0.2361111111111111)],[1],[0],[0],[2.054076799999166],['Target'],183,0,183,0,298.6365863999963,,5,298.6190034999963,298.6365863999963,298.6365863999963,0.012388600000122096,300.6732392999984,[np.float64(-0.4236111111111111)],[np.float64(-0.2361111111111111)],[1],[0],[0],[2.054076799999166],['Target'],FOUR,001,2025-10-03_09h01.26.447,Visual Search Experiment,,2025.1.1,59.53794978701923,2025-10-03 09h01.55.857312 +0530,
184,0,184,[np.float64(-0.46111111111111114)],[np.float64(-0.3875)],[1],[0],[0],[1.4261133999971207],['Target'],184,0,184,0,300.7202266999957,,10,300.6967278999946,300.7202266999957,300.7202266999957,0.023401999998895917,302.12300709999545,[np.float64(-0.46111111111111114)],[np.float64(-0.3875)],[1],[0],[0],[1.4261133999971207],['Target'],FOUR,001,2025-10-03_09h01.26.447,Visual Search Experiment,,2025.1.1,59.53794978701923,2025-10-03 09h01.55.857312 +0530,
185,0,185,"[np.float64(0.2), np.float64(0.21388888888888888)]","[np.float64(0.225), np.float64(0.24166666666666667)]","[1, 1]","[0, 0]","[0, 0]","[1.410606600002211, 2.1425502999991295]","[None, 'Target']",185,0,185,0,302.1698697999964,,10,302.14579319999757,302.1698697999964,302.1698697999964,0.022644799995759968,304.28855029999977,"[np.float64(0.2), np.float64(0.21388888888888888)]","[np.float64(0.225), np.float64(0.24166666666666667)]","[1, 1]","[0, 0]","[0, 0]","[1.410606600002211, 2.1425502999991295]","[None, 'Target']",FOUR,001,2025-10-03_09h01.26.447,Visual Search Experiment,,2025.1.1,59.53794978701923,2025-10-03 09h01.55.857312 +0530,
186,0,186,[np.float64(0.49722222222222223)],[np.float64(-0.23194444444444445)],[1],[0],[0],[1.3143287999992026],['Target'],186,0,186,0,304.35331379999843,,10,304.3240624999962,304.35331379999843,304.35331379999843,0.035351999998965766,305.6385842999953,[np.float64(0.49722222222222223)],[np.float64(-0.23194444444444445)],[1],[0],[0],[1.3143287999992026],['Target'],FOUR,001,2025-10-03_09h01.26.447,Visual Search Experiment,,2025.1.1,59.53794978701923,2025-10-03 09h01.55.857312 +0530,
187,0,187,[np.float64(-0.4263888888888889)],[np.float64(0.3638888888888889)],[1],[0],[0],[1.9216893999982858],['Target'],187,0,187,0,305.68705719999707,,10,305.66733789999853,305.68705719999707,305.68705719999707,0.028615900002478156,307.5892515999949,[np.float64(-0.4263888888888889)],[np.float64(0.3638888888888889)],[1],[0],[0],[1.9216893999982858],['Target'],FOUR,001,2025-10-03_09h01.26.447,Visual Search Experiment,,2025.1.1,59.53794978701923,2025-10-03 09h01.55.857312 +0530,
188,0,188,[np.float64(-0.24861111111111112)],[np.float64(-0.11805555555555555)],[1],[0],[0],[1.6599500000011176],['Target'],188,0,188,0,307.65388159999566,,10,307.6279388999974,307.65388159999566,307.65388159999566,0.038512300001457334,309.2881044999958,[np.float64(-0.24861111111111112)],[np.float64(-0.11805555555555555)],[1],[0],[0],[1.6599500000011176],['Target'],FOUR,001,2025-10-03_09h01.26.447,Visual Search Experiment,,2025.1.1,59.53794978701923,2025-10-03 09h01.55.857312 +0530,
189,0,189,[np.float64(-0.28194444444444444)],[np.float64(0.10694444444444444)],[1],[0],[0],[1.455398400001286],['Target'],189,0,189,0,309.31852049999725,,5,309.29933669999446,309.31852049999725,309.31852049999725,0.011132599996926729,310.75490929999796,[np.float64(-0.28194444444444444)],[np.float64(0.10694444444444444)],[1],[0],[0],[1.455398400001286],['Target'],FOUR,001,2025-10-03_09h01.26.447,Visual Search Experiment,,2025.1.1,59.53794978701923,2025-10-03 09h01.55.857312 +0530,
190,0,190,[np.float64(-0.4666666666666667)],[np.float64(-0.23194444444444445)],[1],[0],[0],[1.377146899998479],['Target'],190,0,190,0,310.8025420999984,,10,310.77684379999846,310.8025420999984,310.8025420999984,0.02184750000014901,312.154189199995,[np.float64(-0.4666666666666667)],[np.float64(-0.23194444444444445)],[1],[0],[0],[1.377146899998479],['Target'],FOUR,001,2025-10-03_09h01.26.447,Visual Search Experiment,,2025.1.1,59.53794978701923,2025-10-03 09h01.55.857312 +0530,
191,0,191,[np.float64(-0.4847222222222222)],[np.float64(-0.2388888888888889)],[1],[0],[0],[1.137538900002255],['Target'],191,0,191,0,312.18622529999993,,5,312.16667980000057,312.18622529999993,312.18622529999993,0.012357500003417954,313.3044010999947,[np.float64(-0.4847222222222222)],[np.float64(-0.2388888888888889)],[1],[0],[0],[1.137538900002255],['Target'],FOUR,001,2025-10-03_09h01.26.447,Visual Search Experiment,,2025.1.1,59.53794978701923,2025-10-03 09h01.55.857312 +0530,
192,0,192,[np.float64(0.17083333333333334)],[np.float64(-0.19444444444444445)],[1],[0],[0],[2.185902499993972],['Target'],192,0,192,0,313.35288529999525,,10,313.33422710000013,313.35288529999525,313.35288529999525,0.02972040000167908,315.52031229999557,[np.float64(0.17083333333333334)],[np.float64(-0.19444444444444445)],[1],[0],[0],[2.185902499993972],['Target'],FOUR,001,2025-10-03_09h01.26.447,Visual Search Experiment,,2025.1.1,59.53794978701923,2025-10-03 09h01.55.857312 +0530,
193,0,193,[np.float64(-0.07361111111111111)],[np.float64(-0.25972222222222224)],[1],[0],[0],[1.6082094999947003],['Target'],193,0,193,0,315.56870060000074,,10,315.54696169999806,315.56870060000074,315.56870060000074,0.02653689999715425,317.1553222000002,[np.float64(-0.07361111111111111)],[np.float64(-0.25972222222222224)],[1],[0],[0],[1.6082094999947003],['Target'],FOUR,001,2025-10-03_09h01.26.447,Visual Search Experiment,,2025.1.1,59.53794978701923,2025-10-03 09h01.55.857312 +0530,
194,0,194,[np.float64(-0.04722222222222222)],[np.float64(-0.24444444444444444)],[1],[0],[0],[1.343825799995102],['Target'],194,0,194,0,317.2030622999955,,10,317.17616549999366,317.2030622999955,317.2030622999955,0.020743599998240825,318.52013609999995,[np.float64(-0.04722222222222222)],[np.float64(-0.24444444444444444)],[1],[0],[0],[1.343825799995102],['Target'],FOUR,001,2025-10-03_09h01.26.447,Visual Search Experiment,,2025.1.1,59.53794978701923,2025-10-03 09h01.55.857312 +0530,
195,0,195,[np.float64(0.0763888888888889)],[np.float64(-0.18055555555555555)],[1],[0],[0],[1.1807475999958115],['Target'],195,0,195,0,318.55057689999376,,10,318.5382046999948,318.55057689999376,318.55057689999376,0.017958099997485988,319.7190985999987,[np.float64(0.0763888888888889)],[np.float64(-0.18055555555555555)],[1],[0],[0],[1.1807475999958115],['Target'],FOUR,001,2025-10-03_09h01.26.447,Visual Search Experiment,,2025.1.1,59.53794978701923,2025-10-03 09h01.55.857312 +0530,
196,0,196,"[np.float64(0.41388888888888886), np.float64(0.42083333333333334)]","[np.float64(-0.39166666666666666), np.float64(-0.3958333333333333)]","[1, 1]","[0, 0]","[0, 0]","[1.1754591999997501, 1.9916181999942637]","[None, 'Target']",196,0,196,0,319.7508299999972,,5,319.7277835999994,319.7508299999972,319.7508299999972,0.008583099996030796,321.71954099999857,"[np.float64(0.41388888888888886), np.float64(0.42083333333333334)]","[np.float64(-0.39166666666666666), np.float64(-0.3958333333333333)]","[1, 1]","[0, 0]","[0, 0]","[1.1754591999997501, 1.9916181999942637]","[None, 'Target']",FOUR,001,2025-10-03_09h01.26.447,Visual Search Experiment,,2025.1.1,59.53794978701923,2025-10-03 09h01.55.857312 +0530,
197,0,197,[np.float64(0.22361111111111112)],[np.float64(-0.4513888888888889)],[1],[0],[0],[1.3074414000002434],['Target'],197,0,197,0,321.75044369999523,,5,321.7289077999958,321.75044369999523,321.75044369999523,0.009261100000003353,323.03649120000046,[np.float64(0.22361111111111112)],[np.float64(-0.4513888888888889)],[1],[0],[0],[1.3074414000002434],['Target'],FOUR,001,2025-10-03_09h01.26.447,Visual Search Experiment,,2025.1.1,59.53794978701923,2025-10-03 09h01.55.857312 +0530,
