thisN,thisTrialN,thisRepN,mouse.x,mouse.y,mouse.leftButton,mouse.midButton,mouse.rightButton,mouse.time,mouse.clicked_name,trials.thisRepN,trials.thisTrialN,trials.thisN,trials.thisIndex,thisRow.t,notes,num_distr,trial.started,Fixation.started,Target.started,mouse.started,trial.stopped,trials.mouse.x,trials.mouse.y,trials.mouse.leftButton,trials.mouse.midButton,trials.mouse.rightButton,trials.mouse.time,trials.mouse.clicked_name,participant,session,date,expName,expVersion,psychopyVersion,frameRate,expStart,
0,0,0,[np.float64(0.4027777777777778)],[np.float64(0.2986111111111111)],[1],[0],[0],[1.4212387000006856],['Target'],0,0,0,0,0.043987299999571405,,5,0.023836399996071123,0.043987299999571405,0.043987299999571405,0.023862200003350154,1.4452167999988887,[np.float64(0.4027777777777778)],[np.float64(0.2986111111111111)],[1],[0],[0],[1.4212387000006856],['Target'],ONE,001,2025-10-01_18h55.48.280,Visual Search Experiment,,2025.1.1,59.959191773962175,2025-10-01 18h55.57.285501 +0530,
1,0,1,[np.float64(-0.36527777777777776)],[np.float64(-0.2847222222222222)],[1],[0],[0],[1.3572868000046583],['Target'],1,0,1,0,1.475898299991968,,5,1.4547545999957947,1.475898299991968,1.475898299991968,0.009430000005522743,2.8121761999937007,[np.float64(-0.36527777777777776)],[np.float64(-0.2847222222222222)],[1],[0],[0],[1.3572868000046583],['Target'],ONE,001,2025-10-01_18h55.48.280,Visual Search Experiment,,2025.1.1,59.959191773962175,2025-10-01 18h55.57.285501 +0530,
2,0,2,[np.float64(-0.18472222222222223)],[np.float64(0.3611111111111111)],[1],[0],[0],[1.8413374999945518],['Target'],2,0,2,0,2.842395100000431,,5,2.820628500005114,2.842395100000431,2.842395100000431,0.008364099994651042,4.662097699998412,[np.float64(-0.18472222222222223)],[np.float64(0.3611111111111111)],[1],[0],[0],[1.8413374999945518],['Target'],ONE,001,2025-10-01_18h55.48.280,Visual Search Experiment,,2025.1.1,59.959191773962175,2025-10-01 18h55.57.285501 +0530,
3,0,3,[np.float64(-0.058333333333333334)],[np.float64(0.45555555555555555)],[1],[0],[0],[2.454475500009721],['Target'],3,0,3,0,4.691892899994855,,5,4.672260899998946,4.691892899994855,4.691892899994855,0.01008390000788495,7.126902399992105,[np.float64(-0.058333333333333334)],[np.float64(0.45555555555555555)],[1],[0],[0],[2.454475500009721],['Target'],ONE,001,2025-10-01_18h55.48.280,Visual Search Experiment,,2025.1.1,59.959191773962175,2025-10-01 18h55.57.285501 +0530,
4,0,4,[np.float64(0.043055555555555555)],[np.float64(0.1625)],[1],[0],[0],[1.23100900001009],['Target'],4,0,4,0,7.1583991999941645,,10,7.145990000004531,7.1583991999941645,7.1583991999941645,0.01899359999515582,8.37714280000364,[np.float64(0.043055555555555555)],[np.float64(0.1625)],[1],[0],[0],[1.23100900001009],['Target'],ONE,001,2025-10-01_18h55.48.280,Visual Search Experiment,,2025.1.1,59.959191773962175,2025-10-01 18h55.57.285501 +0530,
5,0,5,[np.float64(0.2986111111111111)],[np.float64(-0.46805555555555556)],[1],[0],[0],[3.012820300005842],['Target'],5,0,5,0,8.408126399997855,,10,8.397092799990787,8.408126399997855,8.408126399997855,0.01985130000684876,11.410064199997578,[np.float64(0.2986111111111111)],[np.float64(-0.46805555555555556)],[1],[0],[0],[3.012820300005842],['Target'],ONE,001,2025-10-01_18h55.48.280,Visual Search Experiment,,2025.1.1,59.959191773962175,2025-10-01 18h55.57.285501 +0530,
6,0,6,[np.float64(0.24861111111111112)],[np.float64(0.041666666666666664)],[1],[0],[0],[1.489453300004243],['Target'],6,0,6,0,11.491456399991876,,5,11.420257399993716,11.491456399991876,11.491456399991876,0.010086900001624599,12.909840099993744,[np.float64(0.24861111111111112)],[np.float64(0.041666666666666664)],[1],[0],[0],[1.489453300004243],['Target'],ONE,001,2025-10-01_18h55.48.280,Visual Search Experiment,,2025.1.1,59.959191773962175,2025-10-01 18h55.57.285501 +0530,
7,0,7,[np.float64(-0.32222222222222224)],[np.float64(-0.22916666666666666)],[1],[0],[0],[1.8084355000028154],['Target'],7,0,7,0,12.941989400002058,,5,12.918298899996444,12.941989400002058,12.941989400002058,0.008378999991691671,14.726866900004097,[np.float64(-0.32222222222222224)],[np.float64(-0.22916666666666666)],[1],[0],[0],[1.8084355000028154],['Target'],ONE,001,2025-10-01_18h55.48.280,Visual Search Experiment,,2025.1.1,59.959191773962175,2025-10-01 18h55.57.285501 +0530,
8,0,8,[np.float64(0.16805555555555557)],[np.float64(-0.16944444444444445)],[1],[0],[0],[1.6166459000087343],['Target'],8,0,8,0,14.758815099994536,,10,14.74498190000304,14.758815099994536,14.758815099994536,0.018019700000877492,16.361760700005107,[np.float64(0.16805555555555557)],[np.float64(-0.16944444444444445)],[1],[0],[0],[1.6166459000087343],['Target'],ONE,001,2025-10-01_18h55.48.280,Visual Search Experiment,,2025.1.1,59.959191773962175,2025-10-01 18h55.57.285501 +0530,
9,0,9,[np.float64(-0.4)],[np.float64(-0.0625)],[1],[0],[0],[1.473344600002747],['Target'],9,0,9,0,16.391830099993967,,5,16.370327500000712,16.391830099993967,16.391830099993967,0.008465000006253831,17.843803800002206,[np.float64(-0.4)],[np.float64(-0.0625)],[1],[0],[0],[1.473344600002747],['Target'],ONE,001,2025-10-01_18h55.48.280,Visual Search Experiment,,2025.1.1,59.959191773962175,2025-10-01 18h55.57.285501 +0530,
10,0,10,[np.float64(0.2388888888888889)],[np.float64(-0.21666666666666667)],[1],[0],[0],[1.3147632000036538],['Target'],10,0,10,0,17.876183400003356,,10,17.861401100002695,17.876183400003356,17.876183400003356,0.017500700007076375,19.176355999996304,[np.float64(0.2388888888888889)],[np.float64(-0.21666666666666667)],[1],[0],[0],[1.3147632000036538],['Target'],ONE,001,2025-10-01_18h55.48.280,Visual Search Experiment,,2025.1.1,59.959191773962175,2025-10-01 18h55.57.285501 +0530,
11,0,11,[np.float64(-0.044444444444444446)],[np.float64(-0.42777777777777776)],[1],[0],[0],[2.1235184999968624],['Target'],11,0,11,0,19.207439899997553,,5,19.18567130000156,19.207439899997553,19.207439899997553,0.009009899993543513,21.30932169999869,[np.float64(-0.044444444444444446)],[np.float64(-0.42777777777777776)],[1],[0],[0],[2.1235184999968624],['Target'],ONE,001,2025-10-01_18h55.48.280,Visual Search Experiment,,2025.1.1,59.959191773962175,2025-10-01 18h55.57.285501 +0530,
12,0,12,[np.float64(-0.42916666666666664)],[np.float64(-0.05138888888888889)],[1],[0],[0],[1.373122200006037],['Target'],12,0,12,0,21.340884199991706,,5,21.31939330000023,21.340884199991706,21.340884199991706,0.009974400003557093,22.69268939999165,[np.float64(-0.42916666666666664)],[np.float64(-0.05138888888888889)],[1],[0],[0],[1.373122200006037],['Target'],ONE,001,2025-10-01_18h55.48.280,Visual Search Experiment,,2025.1.1,59.959191773962175,2025-10-01 18h55.57.285501 +0530,
13,0,13,[np.float64(0.1388888888888889)],[np.float64(0.24166666666666667)],[1],[0],[0],[1.3806993000034709],['Target'],13,0,13,0,22.72355080000125,,10,22.71113699999114,22.72355080000125,22.72355080000125,0.018315199995413423,24.091978199998266,[np.float64(0.1388888888888889)],[np.float64(0.24166666666666667)],[1],[0],[0],[1.3806993000034709],['Target'],ONE,001,2025-10-01_18h55.48.280,Visual Search Experiment,,2025.1.1,59.959191773962175,2025-10-01 18h55.57.285501 +0530,
14,0,14,"[np.float64(-0.2388888888888889), np.float64(-0.2513888888888889)]","[np.float64(-0.08194444444444444), np.float64(-0.12222222222222222)]","[1, 1]","[0, 0]","[0, 0]","[1.2823471000010613, 1.8652640000073006]","[None, 'Target']",14,0,14,0,24.12360949999129,,10,24.109394899991457,24.12360949999129,24.12360949999129,0.017310800001723692,25.97479169999133,"[np.float64(-0.2388888888888889), np.float64(-0.2513888888888889)]","[np.float64(-0.08194444444444444), np.float64(-0.12222222222222222)]","[1, 1]","[0, 0]","[0, 0]","[1.2823471000010613, 1.8652640000073006]","[None, 'Target']",ONE,001,2025-10-01_18h55.48.280,Visual Search Experiment,,2025.1.1,59.959191773962175,2025-10-01 18h55.57.285501 +0530,
15,0,15,[np.float64(0.12638888888888888)],[np.float64(0.16111111111111112)],[1],[0],[0],[1.3841113000089535],['Target'],15,0,15,0,26.00734999999986,,10,25.992243699991377,26.00734999999986,26.00734999999986,0.017307100002653897,27.376486699999077,[np.float64(0.12638888888888888)],[np.float64(0.16111111111111112)],[1],[0],[0],[1.3841113000089535],['Target'],ONE,001,2025-10-01_18h55.48.280,Visual Search Experiment,,2025.1.1,59.959191773962175,2025-10-01 18h55.57.285501 +0530,
16,0,16,[np.float64(0.20833333333333334)],[np.float64(-0.4666666666666667)],[1],[0],[0],[1.9409559999912744],['Target'],16,0,16,0,27.40694909999729,,5,27.385402899992187,27.40694909999729,27.40694909999729,0.008806300000287592,29.32649439999659,[np.float64(0.20833333333333334)],[np.float64(-0.4666666666666667)],[1],[0],[0],[1.9409559999912744],['Target'],ONE,001,2025-10-01_18h55.48.280,Visual Search Experiment,,2025.1.1,59.959191773962175,2025-10-01 18h55.57.285501 +0530,
17,0,17,[np.float64(-0.25833333333333336)],[np.float64(0.0625)],[1],[0],[0],[1.8320701000047848],['Target'],17,0,17,0,29.35664810000162,,10,29.34342459999607,29.35664810000162,29.35664810000162,0.016852999993716367,31.175630600002478,[np.float64(-0.25833333333333336)],[np.float64(0.0625)],[1],[0],[0],[1.8320701000047848],['Target'],ONE,001,2025-10-01_18h55.48.280,Visual Search Experiment,,2025.1.1,59.959191773962175,2025-10-01 18h55.57.285501 +0530,
18,0,18,[np.float64(0.09861111111111111)],[np.float64(0.13333333333333333)],[1],[0],[0],[1.3739812999992864],['Target'],18,0,18,0,31.206149399993592,,5,31.18461670000397,31.206149399993592,31.206149399993592,0.008867300013662316,32.55872790000285,[np.float64(0.09861111111111111)],[np.float64(0.13333333333333333)],[1],[0],[0],[1.3739812999992864],['Target'],ONE,001,2025-10-01_18h55.48.280,Visual Search Experiment,,2025.1.1,59.959191773962175,2025-10-01 18h55.57.285501 +0530,
19,0,19,[np.float64(-0.022222222222222223)],[np.float64(-0.3972222222222222)],[1],[0],[0],[1.6490479999920353],['Target'],19,0,19,0,32.59097989999282,,10,32.57616229999985,32.59097989999282,32.59097989999282,0.017372099988278933,34.22537580000062,[np.float64(-0.022222222222222223)],[np.float64(-0.3972222222222222)],[1],[0],[0],[1.6490479999920353],['Target'],ONE,001,2025-10-01_18h55.48.280,Visual Search Experiment,,2025.1.1,59.959191773962175,2025-10-01 18h55.57.285501 +0530,
20,0,20,[np.float64(0.4083333333333333)],[np.float64(-0.44305555555555554)],[1],[0],[0],[1.706833699994604],['Target'],20,0,20,0,34.25600549999217,,5,34.23424299999897,34.25600549999217,34.25600549999217,0.008767100007389672,35.94120240000484,[np.float64(0.4083333333333333)],[np.float64(-0.44305555555555554)],[1],[0],[0],[1.706833699994604],['Target'],ONE,001,2025-10-01_18h55.48.280,Visual Search Experiment,,2025.1.1,59.959191773962175,2025-10-01 18h55.57.285501 +0530,
21,0,21,[np.float64(0.018055555555555554)],[np.float64(-0.09583333333333334)],[1],[0],[0],[1.493115499994019],['Target'],21,0,21,0,35.98974619999353,,10,35.96395589999156,35.98974619999353,35.98974619999353,0.022668999998131767,37.45722850000311,[np.float64(0.018055555555555554)],[np.float64(-0.09583333333333334)],[1],[0],[0],[1.493115499994019],['Target'],ONE,001,2025-10-01_18h55.48.280,Visual Search Experiment,,2025.1.1,59.959191773962175,2025-10-01 18h55.57.285501 +0530,
22,0,22,[np.float64(0.38472222222222224)],[np.float64(-0.08055555555555556)],[1],[0],[0],[1.4243877999979304],['Target'],22,0,22,0,37.489239300004556,,5,37.466381399994134,37.489239300004556,37.489239300004556,0.009054200010723434,38.89091649999318,[np.float64(0.38472222222222224)],[np.float64(-0.08055555555555556)],[1],[0],[0],[1.4243877999979304],['Target'],ONE,001,2025-10-01_18h55.48.280,Visual Search Experiment,,2025.1.1,59.959191773962175,2025-10-01 18h55.57.285501 +0530,
23,0,23,[np.float64(-0.019444444444444445)],[np.float64(0.22916666666666666)],[1],[0],[0],[1.7581167000025744],['Target'],23,0,23,0,38.92191659999662,,5,38.899296299990965,38.92191659999662,38.92191659999662,0.008292299986351281,40.657544599991525,[np.float64(-0.019444444444444445)],[np.float64(0.22916666666666666)],[1],[0],[0],[1.7581167000025744],['Target'],ONE,001,2025-10-01_18h55.48.280,Visual Search Experiment,,2025.1.1,59.959191773962175,2025-10-01 18h55.57.285501 +0530,
24,0,24,[np.float64(0.12916666666666668)],[np.float64(0.42916666666666664)],[1],[0],[0],[1.7080476999981329],['Target'],24,0,24,0,40.68947519999347,,5,40.66634039999917,40.68947519999347,40.68947519999347,0.008698900011950172,42.37451749999309,[np.float64(0.12916666666666668)],[np.float64(0.42916666666666664)],[1],[0],[0],[1.7080476999981329],['Target'],ONE,001,2025-10-01_18h55.48.280,Visual Search Experiment,,2025.1.1,59.959191773962175,2025-10-01 18h55.57.285501 +0530,
25,0,25,[np.float64(0.043055555555555555)],[np.float64(-0.3958333333333333)],[1],[0],[0],[2.281559399998514],['Target'],25,0,25,0,42.404929600001196,,10,42.39229279999563,42.404929600001196,42.404929600001196,0.01768140000058338,44.67398179999145,[np.float64(0.043055555555555555)],[np.float64(-0.3958333333333333)],[1],[0],[0],[2.281559399998514],['Target'],ONE,001,2025-10-01_18h55.48.280,Visual Search Experiment,,2025.1.1,59.959191773962175,2025-10-01 18h55.57.285501 +0530,
26,0,26,[np.float64(0.21388888888888888)],[np.float64(0.4111111111111111)],[1],[0],[0],[2.1248484999960056],['Target'],26,0,26,0,44.70497379999142,,5,44.68238470000506,44.70497379999142,44.70497379999142,0.008288600001833402,46.807385899999645,[np.float64(0.21388888888888888)],[np.float64(0.4111111111111111)],[1],[0],[0],[2.1248484999960056],['Target'],ONE,001,2025-10-01_18h55.48.280,Visual Search Experiment,,2025.1.1,59.959191773962175,2025-10-01 18h55.57.285501 +0530,
27,0,27,[np.float64(-0.14722222222222223)],[np.float64(0.04583333333333333)],[1],[0],[0],[1.3880120000103489],['Target'],27,0,27,0,46.83762540000316,,5,46.81866330000048,46.83762540000316,46.83762540000316,0.011206499999389052,48.20683789999748,[np.float64(-0.14722222222222223)],[np.float64(0.04583333333333333)],[1],[0],[0],[1.3880120000103489],['Target'],ONE,001,2025-10-01_18h55.48.280,Visual Search Experiment,,2025.1.1,59.959191773962175,2025-10-01 18h55.57.285501 +0530,
28,0,28,[np.float64(0.12916666666666668)],[np.float64(0.3680555555555556)],[1],[0],[0],[1.2803050999937113],['Target'],28,0,28,0,48.23768900000141,,10,48.22703629999887,48.23768900000141,48.23768900000141,0.02011889999266714,49.507495600002585,[np.float64(0.12916666666666668)],[np.float64(0.3680555555555556)],[1],[0],[0],[1.2803050999937113],['Target'],ONE,001,2025-10-01_18h55.48.280,Visual Search Experiment,,2025.1.1,59.959191773962175,2025-10-01 18h55.57.285501 +0530,
29,0,29,[np.float64(-0.03194444444444444)],[np.float64(0.17916666666666667)],[1],[0],[0],[1.4219177000049967],['Target'],29,0,29,0,49.53748279999127,,5,49.51784250000492,49.53748279999127,49.53748279999127,0.010233599998173304,50.93991240000469,[np.float64(-0.03194444444444444)],[np.float64(0.17916666666666667)],[1],[0],[0],[1.4219177000049967],['Target'],ONE,001,2025-10-01_18h55.48.280,Visual Search Experiment,,2025.1.1,59.959191773962175,2025-10-01 18h55.57.285501 +0530,
30,0,30,"[np.float64(0.29305555555555557), np.float64(0.3138888888888889)]","[np.float64(-0.3486111111111111), np.float64(-0.34444444444444444)]","[1, 1]","[0, 0]","[0, 0]","[2.4799217999971006, 3.3473113999934867]","[None, 'Target']",30,0,30,0,50.9710167000012,,10,50.959474799994496,50.9710167000012,50.9710167000012,0.019480000002658926,54.30693179999071,"[np.float64(0.29305555555555557), np.float64(0.3138888888888889)]","[np.float64(-0.3486111111111111), np.float64(-0.34444444444444444)]","[1, 1]","[0, 0]","[0, 0]","[2.4799217999971006, 3.3473113999934867]","[None, 'Target']",ONE,001,2025-10-01_18h55.48.280,Visual Search Experiment,,2025.1.1,59.959191773962175,2025-10-01 18h55.57.285501 +0530,
31,0,31,[np.float64(0.2722222222222222)],[np.float64(0.23194444444444445)],[1],[0],[0],[1.4961294999957317],['Target'],31,0,31,0,54.33738529999391,,10,54.325345799996285,54.33738529999391,54.33738529999391,0.01826460000302177,55.8216126000043,[np.float64(0.2722222222222222)],[np.float64(0.23194444444444445)],[1],[0],[0],[1.4961294999957317],['Target'],ONE,001,2025-10-01_18h55.48.280,Visual Search Experiment,,2025.1.1,59.959191773962175,2025-10-01 18h55.57.285501 +0530,
32,0,32,[np.float64(-0.018055555555555554)],[np.float64(-0.3416666666666667)],[1],[0],[0],[2.373411299995496],['Target'],32,0,32,0,55.85503449999669,,5,55.83221569999296,55.85503449999669,55.85503449999669,0.010493599998881109,58.205775900001754,[np.float64(-0.018055555555555554)],[np.float64(-0.3416666666666667)],[1],[0],[0],[2.373411299995496],['Target'],ONE,001,2025-10-01_18h55.48.280,Visual Search Experiment,,2025.1.1,59.959191773962175,2025-10-01 18h55.57.285501 +0530,
33,0,33,[np.float64(0.3375)],[np.float64(0.4791666666666667)],[1],[0],[0],[2.561806700003217],['Target'],33,0,33,0,58.25431960000424,,10,58.226628599994,58.25431960000424,58.25431960000424,0.020760899991728365,60.788583999994444,[np.float64(0.3375)],[np.float64(0.4791666666666667)],[1],[0],[0],[2.561806700003217],['Target'],ONE,001,2025-10-01_18h55.48.280,Visual Search Experiment,,2025.1.1,59.959191773962175,2025-10-01 18h55.57.285501 +0530,
34,0,34,[np.float64(0.09444444444444444)],[np.float64(-0.24027777777777778)],[1],[0],[0],[1.7583679999952437],['Target'],34,0,34,0,60.82041230000323,,5,60.79793430000427,60.82041230000323,60.82041230000323,0.009250599992810749,62.556434900005115,[np.float64(0.09444444444444444)],[np.float64(-0.24027777777777778)],[1],[0],[0],[1.7583679999952437],['Target'],ONE,001,2025-10-01_18h55.48.280,Visual Search Experiment,,2025.1.1,59.959191773962175,2025-10-01 18h55.57.285501 +0530,
35,0,35,[np.float64(-0.08472222222222223)],[np.float64(0.13194444444444445)],[1],[0],[0],[1.3706630000087898],['Target'],35,0,35,0,62.58721660000447,,5,62.567357599997194,62.58721660000447,62.58721660000447,0.01084969998919405,63.93819020000228,[np.float64(-0.08472222222222223)],[np.float64(0.13194444444444445)],[1],[0],[0],[1.3706630000087898],['Target'],ONE,001,2025-10-01_18h55.48.280,Visual Search Experiment,,2025.1.1,59.959191773962175,2025-10-01 18h55.57.285501 +0530,
36,0,36,[np.float64(0.04722222222222222)],[np.float64(-0.1736111111111111)],[1],[0],[0],[1.7652153999952134],['Target'],36,0,36,0,63.97035649999452,,10,63.95680529999663,63.97035649999452,63.97035649999452,0.018520300000091083,65.72215699999651,[np.float64(0.04722222222222222)],[np.float64(-0.1736111111111111)],[1],[0],[0],[1.7652153999952134],['Target'],ONE,001,2025-10-01_18h55.48.280,Visual Search Experiment,,2025.1.1,59.959191773962175,2025-10-01 18h55.57.285501 +0530,
37,0,37,[np.float64(0.23055555555555557)],[np.float64(0.2625)],[1],[0],[0],[1.680292000004556],['Target'],37,0,37,0,65.75306550000096,,10,65.74056789999304,65.75306550000096,65.75306550000096,0.018291499989572912,67.42099139999482,[np.float64(0.23055555555555557)],[np.float64(0.2625)],[1],[0],[0],[1.680292000004556],['Target'],ONE,001,2025-10-01_18h55.48.280,Visual Search Experiment,,2025.1.1,59.959191773962175,2025-10-01 18h55.57.285501 +0530,
38,0,38,[np.float64(-0.08888888888888889)],[np.float64(-0.21388888888888888)],[1],[0],[0],[1.347639799991157],['Target'],38,0,38,0,67.4523138999939,,10,67.43978669999342,67.4523138999939,67.4523138999939,0.018692799989366904,68.78757800000312,[np.float64(-0.08888888888888889)],[np.float64(-0.21388888888888888)],[1],[0],[0],[1.347639799991157],['Target'],ONE,001,2025-10-01_18h55.48.280,Visual Search Experiment,,2025.1.1,59.959191773962175,2025-10-01 18h55.57.285501 +0530,
39,0,39,[np.float64(0.28055555555555556)],[np.float64(-0.09305555555555556)],[1],[0],[0],[1.4734688999888021],['Target'],39,0,39,0,68.81896730000153,,5,68.79768740000145,68.81896730000153,68.81896730000153,0.010008199998992495,70.27133219999087,[np.float64(0.28055555555555556)],[np.float64(-0.09305555555555556)],[1],[0],[0],[1.4734688999888021],['Target'],ONE,001,2025-10-01_18h55.48.280,Visual Search Experiment,,2025.1.1,59.959191773962175,2025-10-01 18h55.57.285501 +0530,
40,0,40,[np.float64(0.3013888888888889)],[np.float64(-0.33194444444444443)],[1],[0],[0],[1.3214858999999706],['Target'],40,0,40,0,70.3019515999913,,5,70.28176179999718,70.3019515999913,70.3019515999913,0.010337100000469945,71.6033832999965,[np.float64(0.3013888888888889)],[np.float64(-0.33194444444444443)],[1],[0],[0],[1.3214858999999706],['Target'],ONE,001,2025-10-01_18h55.48.280,Visual Search Experiment,,2025.1.1,59.959191773962175,2025-10-01 18h55.57.285501 +0530,
41,0,41,[np.float64(0.3388888888888889)],[np.float64(-0.059722222222222225)],[1],[0],[0],[0.9921123000094667],['Target'],41,0,41,0,71.63609089999227,,5,71.61219489999348,71.63609089999227,71.63609089999227,0.008726499989279546,72.60443769999256,[np.float64(0.3388888888888889)],[np.float64(-0.059722222222222225)],[1],[0],[0],[0.9921123000094667],['Target'],ONE,001,2025-10-01_18h55.48.280,Visual Search Experiment,,2025.1.1,59.959191773962175,2025-10-01 18h55.57.285501 +0530,
42,0,42,[np.float64(-0.09722222222222222)],[np.float64(-0.39861111111111114)],[1],[0],[0],[1.7156057999964105],['Target'],42,0,42,0,72.63575879999553,,10,72.62181290000444,72.63575879999553,72.63575879999553,0.01729170000180602,74.33755539999402,[np.float64(-0.09722222222222222)],[np.float64(-0.39861111111111114)],[1],[0],[0],[1.7156057999964105],['Target'],ONE,001,2025-10-01_18h55.48.280,Visual Search Experiment,,2025.1.1,59.959191773962175,2025-10-01 18h55.57.285501 +0530,
43,0,43,[np.float64(0.28055555555555556)],[np.float64(0.05138888888888889)],[1],[0],[0],[1.4278516000049422],['Target'],43,0,43,0,74.38555530000303,,10,74.35966809999081,74.38555530000303,74.38555530000303,0.022011399996699765,75.78766010000254,[np.float64(0.28055555555555556)],[np.float64(0.05138888888888889)],[1],[0],[0],[1.4278516000049422],['Target'],ONE,001,2025-10-01_18h55.48.280,Visual Search Experiment,,2025.1.1,59.959191773962175,2025-10-01 18h55.57.285501 +0530,
44,0,44,"[np.float64(0.43472222222222223), np.float64(0.45416666666666666)]","[np.float64(0.043055555555555555), np.float64(0.03888888888888889)]","[1, 1]","[0, 0]","[0, 0]","[1.145989800003008, 4.111966800002847]","[None, 'Target']",44,0,44,0,75.83566879999125,,10,75.80779559999064,75.83566879999125,75.83566879999125,0.02002540000830777,79.9199060999963,"[np.float64(0.43472222222222223), np.float64(0.45416666666666666)]","[np.float64(0.043055555555555555), np.float64(0.03888888888888889)]","[1, 1]","[0, 0]","[0, 0]","[1.145989800003008, 4.111966800002847]","[None, 'Target']",ONE,001,2025-10-01_18h55.48.280,Visual Search Experiment,,2025.1.1,59.959191773962175,2025-10-01 18h55.57.285501 +0530,
45,0,45,[np.float64(-0.1375)],[np.float64(-0.009722222222222222)],[1],[0],[0],[1.4394021000043722],['Target'],45,0,45,0,79.9523068999988,,5,79.93059849999554,79.9523068999988,79.9523068999988,0.010573400009889156,81.3701357999962,[np.float64(-0.1375)],[np.float64(-0.009722222222222222)],[1],[0],[0],[1.4394021000043722],['Target'],ONE,001,2025-10-01_18h55.48.280,Visual Search Experiment,,2025.1.1,59.959191773962175,2025-10-01 18h55.57.285501 +0530,
46,0,46,[np.float64(-0.1388888888888889)],[np.float64(0.4041666666666667)],[1],[0],[0],[2.0992505000031088],['Target'],46,0,46,0,81.40129989999696,,10,81.38887939999404,81.40129989999696,81.40129989999696,0.018678899999940768,83.48830529999395,[np.float64(-0.1388888888888889)],[np.float64(0.4041666666666667)],[1],[0],[0],[2.0992505000031088],['Target'],ONE,001,2025-10-01_18h55.48.280,Visual Search Experiment,,2025.1.1,59.959191773962175,2025-10-01 18h55.57.285501 +0530,
47,0,47,[np.float64(-0.13333333333333333)],[np.float64(-0.45416666666666666)],[1],[0],[0],[2.5639823999954388],['Target'],47,0,47,0,83.51800090000324,,10,83.5055008999916,83.51800090000324,83.51800090000324,0.017093299989937805,86.06961920000322,[np.float64(-0.13333333333333333)],[np.float64(-0.45416666666666666)],[1],[0],[0],[2.5639823999954388],['Target'],ONE,001,2025-10-01_18h55.48.280,Visual Search Experiment,,2025.1.1,59.959191773962175,2025-10-01 18h55.57.285501 +0530,
48,0,48,"[np.float64(-0.39444444444444443), np.float64(-0.3680555555555556)]","[np.float64(-0.22777777777777777), np.float64(-0.22083333333333333)]","[1, 1]","[0, 0]","[0, 0]","[1.7987331000040285, 4.099246400000993]","[None, 'Target']",48,0,48,0,86.10153529999661,,10,86.08722729999863,86.10153529999661,86.10153529999661,0.017499399997177534,90.18662389999372,"[np.float64(-0.39444444444444443), np.float64(-0.3680555555555556)]","[np.float64(-0.22777777777777777), np.float64(-0.22083333333333333)]","[1, 1]","[0, 0]","[0, 0]","[1.7987331000040285, 4.099246400000993]","[None, 'Target']",ONE,001,2025-10-01_18h55.48.280,Visual Search Experiment,,2025.1.1,59.959191773962175,2025-10-01 18h55.57.285501 +0530,
49,0,49,[np.float64(-0.475)],[np.float64(-0.2777777777777778)],[1],[0],[0],[1.515769099991303],['Target'],49,0,49,0,90.21713399999135,,10,90.20465780000086,90.21713399999135,90.21713399999135,0.01789170000120066,91.72059509999235,[np.float64(-0.475)],[np.float64(-0.2777777777777778)],[1],[0],[0],[1.515769099991303],['Target'],ONE,001,2025-10-01_18h55.48.280,Visual Search Experiment,,2025.1.1,59.959191773962175,2025-10-01 18h55.57.285501 +0530,
50,0,50,[np.float64(-0.48055555555555557)],[np.float64(-0.008333333333333333)],[1],[0],[0],[1.315633300007903],['Target'],50,0,50,0,91.75032569999166,,10,91.73831339999742,91.75032569999166,91.75032569999166,0.01760009999270551,93.05407939999714,[np.float64(-0.48055555555555557)],[np.float64(-0.008333333333333333)],[1],[0],[0],[1.315633300007903],['Target'],ONE,001,2025-10-01_18h55.48.280,Visual Search Experiment,,2025.1.1,59.959191773962175,2025-10-01 18h55.57.285501 +0530,
51,0,51,[np.float64(0.1111111111111111)],[np.float64(0.3527777777777778)],[1],[0],[0],[1.4227565999899525],['Target'],51,0,51,0,93.08358069999667,,5,93.06310279999161,93.08358069999667,93.08358069999667,0.00890369999979157,94.48600449999503,[np.float64(0.1111111111111111)],[np.float64(0.3527777777777778)],[1],[0],[0],[1.4227565999899525],['Target'],ONE,001,2025-10-01_18h55.48.280,Visual Search Experiment,,2025.1.1,59.959191773962175,2025-10-01 18h55.57.285501 +0530,
52,0,52,[np.float64(0.0875)],[np.float64(0.18611111111111112)],[1],[0],[0],[1.0566149999940535],['Target'],52,0,52,0,94.51659079999081,,5,94.49566539999796,94.51659079999081,94.51659079999081,0.009567699991748668,95.55241599999135,[np.float64(0.0875)],[np.float64(0.18611111111111112)],[1],[0],[0],[1.0566149999940535],['Target'],ONE,001,2025-10-01_18h55.48.280,Visual Search Experiment,,2025.1.1,59.959191773962175,2025-10-01 18h55.57.285501 +0530,
53,0,53,[np.float64(-0.3638888888888889)],[np.float64(0.43333333333333335)],[1],[0],[0],[3.464289600000484],['Target'],53,0,53,0,95.58322220000264,,10,95.57099929999094,95.58322220000264,95.58322220000264,0.0184892000106629,99.0354229999939,[np.float64(-0.3638888888888889)],[np.float64(0.43333333333333335)],[1],[0],[0],[3.464289600000484],['Target'],ONE,001,2025-10-01_18h55.48.280,Visual Search Experiment,,2025.1.1,59.959191773962175,2025-10-01 18h55.57.285501 +0530,
54,0,54,[np.float64(0.4152777777777778)],[np.float64(0.4736111111111111)],[1],[0],[0],[3.2467524999956368],['Target'],54,0,54,0,99.06583910000336,,10,99.05524439999135,99.06583910000336,99.06583910000336,0.01971639999828767,102.30214079999132,[np.float64(0.4152777777777778)],[np.float64(0.4736111111111111)],[1],[0],[0],[3.2467524999956368],['Target'],ONE,001,2025-10-01_18h55.48.280,Visual Search Experiment,,2025.1.1,59.959191773962175,2025-10-01 18h55.57.285501 +0530,
55,0,55,[np.float64(-0.28055555555555556)],[np.float64(0.15694444444444444)],[1],[0],[0],[1.841226499993354],['Target'],55,0,55,0,102.333117400005,,5,102.31086959999811,102.333117400005,102.333117400005,0.008614799997303635,104.15223490000062,[np.float64(-0.28055555555555556)],[np.float64(0.15694444444444444)],[1],[0],[0],[1.841226499993354],['Target'],ONE,001,2025-10-01_18h55.48.280,Visual Search Experiment,,2025.1.1,59.959191773962175,2025-10-01 18h55.57.285501 +0530,
56,0,56,[np.float64(0.47638888888888886)],[np.float64(0.33194444444444443)],[1],[0],[0],[1.4312409999984084],['Target'],56,0,56,0,104.1822661000042,,10,104.16950829999405,104.1822661000042,104.1822661000042,0.01719119999324903,105.60087840000051,[np.float64(0.47638888888888886)],[np.float64(0.33194444444444443)],[1],[0],[0],[1.4312409999984084],['Target'],ONE,001,2025-10-01_18h55.48.280,Visual Search Experiment,,2025.1.1,59.959191773962175,2025-10-01 18h55.57.285501 +0530,
57,0,57,[np.float64(0.32916666666666666)],[np.float64(0.37083333333333335)],[1],[0],[0],[1.6965401000052225],['Target'],57,0,57,0,105.63210339999932,,10,105.62083590000111,105.63210339999932,105.63210339999932,0.0198619000002509,107.31752779999806,[np.float64(0.32916666666666666)],[np.float64(0.37083333333333335)],[1],[0],[0],[1.6965401000052225],['Target'],ONE,001,2025-10-01_18h55.48.280,Visual Search Experiment,,2025.1.1,59.959191773962175,2025-10-01 18h55.57.285501 +0530,
58,0,58,[np.float64(0.059722222222222225)],[np.float64(0.07222222222222222)],[1],[0],[0],[1.2077568999957293],['Target'],58,0,58,0,107.34837959999277,,5,107.32650339999236,107.34837959999277,107.34837959999277,0.008866500007570721,108.53439620000427,[np.float64(0.059722222222222225)],[np.float64(0.07222222222222222)],[1],[0],[0],[1.2077568999957293],['Target'],ONE,001,2025-10-01_18h55.48.280,Visual Search Experiment,,2025.1.1,59.959191773962175,2025-10-01 18h55.57.285501 +0530,
59,0,59,[np.float64(0.39166666666666666)],[np.float64(-0.1527777777777778)],[1],[0],[0],[1.6884580000041751],['Target'],59,0,59,0,108.56479509999917,,5,108.54489099999773,108.56479509999917,108.56479509999917,0.010406500005046837,110.23350069999287,[np.float64(0.39166666666666666)],[np.float64(-0.1527777777777778)],[1],[0],[0],[1.6884580000041751],['Target'],ONE,001,2025-10-01_18h55.48.280,Visual Search Experiment,,2025.1.1,59.959191773962175,2025-10-01 18h55.57.285501 +0530,
60,0,60,"[np.float64(0.37916666666666665), np.float64(0.39305555555555555)]","[np.float64(-0.4236111111111111), np.float64(-0.4236111111111111)]","[1, 1]","[0, 0]","[0, 0]","[1.5054750999988755, 2.1885819000017364]","[None, 'Target']",60,0,60,0,110.2648210000043,,5,110.24492329999339,110.2648210000043,110.2648210000043,0.011333500006003305,112.43364570000267,"[np.float64(0.37916666666666665), np.float64(0.39305555555555555)]","[np.float64(-0.4236111111111111), np.float64(-0.4236111111111111)]","[1, 1]","[0, 0]","[0, 0]","[1.5054750999988755, 2.1885819000017364]","[None, 'Target']",ONE,001,2025-10-01_18h55.48.280,Visual Search Experiment,,2025.1.1,59.959191773962175,2025-10-01 18h55.57.285501 +0530,
61,0,61,[np.float64(-0.4652777777777778)],[np.float64(0.3541666666666667)],[1],[0],[0],[1.6905712000007043],['Target'],61,0,61,0,112.46535640000366,,5,112.44279309999547,112.46535640000366,112.46535640000366,0.009049200001754798,114.13350229999924,[np.float64(-0.4652777777777778)],[np.float64(0.3541666666666667)],[1],[0],[0],[1.6905712000007043],['Target'],ONE,001,2025-10-01_18h55.48.280,Visual Search Experiment,,2025.1.1,59.959191773962175,2025-10-01 18h55.57.285501 +0530,
62,0,62,[np.float64(-0.3736111111111111)],[np.float64(-0.16666666666666666)],[1],[0],[0],[2.3064673000044422],['Target'],62,0,62,0,114.16429760000028,,5,114.14334429999872,114.16429760000028,114.16429760000028,0.009771600001840852,116.45001810000394,[np.float64(-0.3736111111111111)],[np.float64(-0.16666666666666666)],[1],[0],[0],[2.3064673000044422],['Target'],ONE,001,2025-10-01_18h55.48.280,Visual Search Experiment,,2025.1.1,59.959191773962175,2025-10-01 18h55.57.285501 +0530,
63,0,63,"[np.float64(-0.3819444444444444), np.float64(-0.36527777777777776)]","[np.float64(-0.25555555555555554), np.float64(-0.23472222222222222)]","[1, 1]","[0, 0]","[0, 0]","[1.5328516000008676, 2.299380199998268]","[None, 'Target']",63,0,63,0,116.48116719999234,,10,116.46719450000091,116.48116719999234,116.48116719999234,0.01709819999814499,118.76673909999954,"[np.float64(-0.3819444444444444), np.float64(-0.36527777777777776)]","[np.float64(-0.25555555555555554), np.float64(-0.23472222222222222)]","[1, 1]","[0, 0]","[0, 0]","[1.5328516000008676, 2.299380199998268]","[None, 'Target']",ONE,001,2025-10-01_18h55.48.280,Visual Search Experiment,,2025.1.1,59.959191773962175,2025-10-01 18h55.57.285501 +0530,
64,0,64,[np.float64(0.46805555555555556)],[np.float64(-0.4)],[1],[0],[0],[2.757647200007341],['Target'],64,0,64,0,118.79790429999412,,5,118.77591969999776,118.79790429999412,118.79790429999412,0.00902230000065174,121.53372579999268,[np.float64(0.46805555555555556)],[np.float64(-0.4)],[1],[0],[0],[2.757647200007341],['Target'],ONE,001,2025-10-01_18h55.48.280,Visual Search Experiment,,2025.1.1,59.959191773962175,2025-10-01 18h55.57.285501 +0530,
65,0,65,[np.float64(-0.2833333333333333)],[np.float64(-0.44583333333333336)],[1],[0],[0],[1.9482646999967983],['Target'],65,0,65,0,121.56370610000158,,10,121.55107940000016,121.56370610000158,121.56370610000158,0.01724370000010822,123.49947549999342,[np.float64(-0.2833333333333333)],[np.float64(-0.44583333333333336)],[1],[0],[0],[1.9482646999967983],['Target'],ONE,001,2025-10-01_18h55.48.280,Visual Search Experiment,,2025.1.1,59.959191773962175,2025-10-01 18h55.57.285501 +0530,
66,0,66,[np.float64(-0.005555555555555556)],[np.float64(0.09027777777777778)],[1],[0],[0],[2.040886799994041],['Target'],66,0,66,0,123.53083619999234,,5,123.508660099993,123.53083619999234,123.53083619999234,0.009078100003534928,125.54967799999577,[np.float64(-0.005555555555555556)],[np.float64(0.09027777777777778)],[1],[0],[0],[2.040886799994041],['Target'],ONE,001,2025-10-01_18h55.48.280,Visual Search Experiment,,2025.1.1,59.959191773962175,2025-10-01 18h55.57.285501 +0530,
67,0,67,[np.float64(0.3875)],[np.float64(-0.2916666666666667)],[1],[0],[0],[1.548036599997431],['Target'],67,0,67,0,125.57998539999244,,10,125.56800929999736,125.57998539999244,125.57998539999244,0.01823359999980312,127.11617399999523,[np.float64(0.3875)],[np.float64(-0.2916666666666667)],[1],[0],[0],[1.548036599997431],['Target'],ONE,001,2025-10-01_18h55.48.280,Visual Search Experiment,,2025.1.1,59.959191773962175,2025-10-01 18h55.57.285501 +0530,
68,0,68,[np.float64(0.002777777777777778)],[np.float64(-0.18055555555555555)],[1],[0],[0],[2.082049199991161],['Target'],68,0,68,0,127.14730159999453,,10,127.13328969999566,127.14730159999453,127.14730159999453,0.016983800000161864,129.21548260000418,[np.float64(0.002777777777777778)],[np.float64(-0.18055555555555555)],[1],[0],[0],[2.082049199991161],['Target'],ONE,001,2025-10-01_18h55.48.280,Visual Search Experiment,,2025.1.1,59.959191773962175,2025-10-01 18h55.57.285501 +0530,
69,0,69,[np.float64(-0.3819444444444444)],[np.float64(0.3263888888888889)],[1],[0],[0],[1.7646663000050467],['Target'],69,0,69,0,129.24616529999184,,10,129.2341987999971,129.24616529999184,129.24616529999184,0.018600399998831563,130.99900139999227,[np.float64(-0.3819444444444444)],[np.float64(0.3263888888888889)],[1],[0],[0],[1.7646663000050467],['Target'],ONE,001,2025-10-01_18h55.48.280,Visual Search Experiment,,2025.1.1,59.959191773962175,2025-10-01 18h55.57.285501 +0530,
70,0,70,[np.float64(0.4861111111111111)],[np.float64(0.33055555555555555)],[1],[0],[0],[2.124123799992958],['Target'],70,0,70,0,131.0296524000005,,5,131.00770580000244,131.0296524000005,131.0296524000005,0.008589099990786053,133.13196769999922,[np.float64(0.4861111111111111)],[np.float64(0.33055555555555555)],[1],[0],[0],[2.124123799992958],['Target'],ONE,001,2025-10-01_18h55.48.280,Visual Search Experiment,,2025.1.1,59.959191773962175,2025-10-01 18h55.57.285501 +0530,
71,0,71,[np.float64(-0.2361111111111111)],[np.float64(0.0763888888888889)],[1],[0],[0],[1.239917400002014],['Target'],71,0,71,0,133.16275029999088,,5,133.14055680000456,133.16275029999088,133.16275029999088,0.008498600000166334,134.38060859999678,[np.float64(-0.2361111111111111)],[np.float64(0.0763888888888889)],[1],[0],[0],[1.239917400002014],['Target'],ONE,001,2025-10-01_18h55.48.280,Visual Search Experiment,,2025.1.1,59.959191773962175,2025-10-01 18h55.57.285501 +0530,
72,0,72,[np.float64(-0.4305555555555556)],[np.float64(0.06527777777777778)],[1],[0],[0],[1.649940199989942],['Target'],72,0,72,0,134.41329529999348,,10,134.39787519999663,134.41329529999348,134.41329529999348,0.01716879999730736,136.04797230000258,[np.float64(-0.4305555555555556)],[np.float64(0.06527777777777778)],[1],[0],[0],[1.649940199989942],['Target'],ONE,001,2025-10-01_18h55.48.280,Visual Search Experiment,,2025.1.1,59.959191773962175,2025-10-01 18h55.57.285501 +0530,
73,0,73,[np.float64(-0.3236111111111111)],[np.float64(0.2847222222222222)],[1],[0],[0],[1.1983710000058636],['Target'],73,0,73,0,136.07892050000373,,10,136.0670531999931,136.07892050000373,136.07892050000373,0.018956700005219318,137.26556040000287,[np.float64(-0.3236111111111111)],[np.float64(0.2847222222222222)],[1],[0],[0],[1.1983710000058636],['Target'],ONE,001,2025-10-01_18h55.48.280,Visual Search Experiment,,2025.1.1,59.959191773962175,2025-10-01 18h55.57.285501 +0530,
74,0,74,"[np.float64(0.03888888888888889), np.float64(0.013888888888888888)]","[np.float64(-0.034722222222222224), np.float64(-0.03611111111111111)]","[1, 1]","[0, 0]","[0, 0]","[2.398665400003665, 3.180448500002967]","[None, 'Target']",74,0,74,0,137.29530379999778,,10,137.2822748000035,137.29530379999778,137.29530379999778,0.01660220000485424,140.4629152999987,"[np.float64(0.03888888888888889), np.float64(0.013888888888888888)]","[np.float64(-0.034722222222222224), np.float64(-0.03611111111111111)]","[1, 1]","[0, 0]","[0, 0]","[2.398665400003665, 3.180448500002967]","[None, 'Target']",ONE,001,2025-10-01_18h55.48.280,Visual Search Experiment,,2025.1.1,59.959191773962175,2025-10-01 18h55.57.285501 +0530,
75,0,75,[np.float64(-0.4222222222222222)],[np.float64(0.17777777777777778)],[1],[0],[0],[1.257987699995283],['Target'],75,0,75,0,140.49532829999225,,5,140.47244889999274,140.49532829999225,140.49532829999225,0.009377599999425001,141.73058540000056,[np.float64(-0.4222222222222222)],[np.float64(0.17777777777777778)],[1],[0],[0],[1.257987699995283],['Target'],ONE,001,2025-10-01_18h55.48.280,Visual Search Experiment,,2025.1.1,59.959191773962175,2025-10-01 18h55.57.285501 +0530,
76,0,76,[np.float64(0.022222222222222223)],[np.float64(-0.05555555555555555)],[1],[0],[0],[1.5486945000011474],['Target'],76,0,76,0,141.76195449999068,,10,141.7492429999984,141.76195449999068,141.76195449999068,0.018573199995444156,143.2980752000003,[np.float64(0.022222222222222223)],[np.float64(-0.05555555555555555)],[1],[0],[0],[1.5486945000011474],['Target'],ONE,001,2025-10-01_18h55.48.280,Visual Search Experiment,,2025.1.1,59.959191773962175,2025-10-01 18h55.57.285501 +0530,
77,0,77,[np.float64(-0.06944444444444445)],[np.float64(0.011111111111111112)],[1],[0],[0],[1.2297700999915833],['Target'],77,0,77,0,143.32890639999823,,10,143.31638399999065,143.32890639999823,143.32890639999823,0.01818990000174381,144.5462828000018,[np.float64(-0.06944444444444445)],[np.float64(0.011111111111111112)],[1],[0],[0],[1.2297700999915833],['Target'],ONE,001,2025-10-01_18h55.48.280,Visual Search Experiment,,2025.1.1,59.959191773962175,2025-10-01 18h55.57.285501 +0530,
78,0,78,[np.float64(0.2763888888888889)],[np.float64(-0.09027777777777778)],[1],[0],[0],[1.4761583999934373],['Target'],78,0,78,0,144.5791351999942,,5,144.55484729999444,144.5791351999942,144.5791351999942,0.008465299993986264,146.03113669999584,[np.float64(0.2763888888888889)],[np.float64(-0.09027777777777778)],[1],[0],[0],[1.4761583999934373],['Target'],ONE,001,2025-10-01_18h55.48.280,Visual Search Experiment,,2025.1.1,59.959191773962175,2025-10-01 18h55.57.285501 +0530,
79,0,79,[np.float64(-0.4027777777777778)],[np.float64(-0.21944444444444444)],[1],[0],[0],[1.5142533000034746],['Target'],79,0,79,0,146.0609187999944,,10,146.049391499997,146.0609187999944,146.0609187999944,0.018158999999286607,147.56377589999465,[np.float64(-0.4027777777777778)],[np.float64(-0.21944444444444444)],[1],[0],[0],[1.5142533000034746],['Target'],ONE,001,2025-10-01_18h55.48.280,Visual Search Experiment,,2025.1.1,59.959191773962175,2025-10-01 18h55.57.285501 +0530,
80,0,80,[np.float64(-0.043055555555555555)],[np.float64(-0.15694444444444444)],[1],[0],[0],[1.0907435999979498],['Target'],80,0,80,0,147.59492989999126,,5,147.57276270000148,147.59492989999126,147.59492989999126,0.008870600009686314,148.66364080000494,[np.float64(-0.043055555555555555)],[np.float64(-0.15694444444444444)],[1],[0],[0],[1.0907435999979498],['Target'],ONE,001,2025-10-01_18h55.48.280,Visual Search Experiment,,2025.1.1,59.959191773962175,2025-10-01 18h55.57.285501 +0530,
81,0,81,[np.float64(0.03333333333333333)],[np.float64(-0.03333333333333333)],[1],[0],[0],[1.130871000001207],['Target'],81,0,81,0,148.6949520999915,,10,148.68221020000055,148.6949520999915,148.6949520999915,0.018488699992303737,149.813290399994,[np.float64(0.03333333333333333)],[np.float64(-0.03333333333333333)],[1],[0],[0],[1.130871000001207],['Target'],ONE,001,2025-10-01_18h55.48.280,Visual Search Experiment,,2025.1.1,59.959191773962175,2025-10-01 18h55.57.285501 +0530,
82,0,82,[np.float64(0.05)],[np.float64(0.044444444444444446)],[1],[0],[0],[0.9588577999966219],['Target'],82,0,82,0,149.8616619999957,,10,149.8371308999922,149.8616619999957,149.8616619999957,0.023654899996472523,150.79614399999264,[np.float64(0.05)],[np.float64(0.044444444444444446)],[1],[0],[0],[0.9588577999966219],['Target'],ONE,001,2025-10-01_18h55.48.280,Visual Search Experiment,,2025.1.1,59.959191773962175,2025-10-01 18h55.57.285501 +0530,
83,0,83,[np.float64(0.4666666666666667)],[np.float64(0.45555555555555555)],[1],[0],[0],[1.758239999995567],['Target'],83,0,83,0,150.82773489999818,,5,150.80498210000223,150.82773489999818,150.82773489999818,0.008736700008739717,152.56337469999562,[np.float64(0.4666666666666667)],[np.float64(0.45555555555555555)],[1],[0],[0],[1.758239999995567],['Target'],ONE,001,2025-10-01_18h55.48.280,Visual Search Experiment,,2025.1.1,59.959191773962175,2025-10-01 18h55.57.285501 +0530,
84,0,84,[np.float64(0.07361111111111111)],[np.float64(-0.29444444444444445)],[1],[0],[0],[1.4297681000025477],['Target'],84,0,84,0,152.59455270000035,,10,152.58290779999516,152.59455270000035,152.59455270000035,0.019444099991233088,154.0128190999967,[np.float64(0.07361111111111111)],[np.float64(-0.29444444444444445)],[1],[0],[0],[1.4297681000025477],['Target'],ONE,001,2025-10-01_18h55.48.280,Visual Search Experiment,,2025.1.1,59.959191773962175,2025-10-01 18h55.57.285501 +0530,
85,0,85,[np.float64(-0.3263888888888889)],[np.float64(0.3680555555555556)],[1],[0],[0],[2.0561087999958545],['Target'],85,0,85,0,154.0439050999994,,5,154.0231158999959,154.0439050999994,154.0439050999994,0.010178199998335913,156.0793568999943,[np.float64(-0.3263888888888889)],[np.float64(0.3680555555555556)],[1],[0],[0],[2.0561087999958545],['Target'],ONE,001,2025-10-01_18h55.48.280,Visual Search Experiment,,2025.1.1,59.959191773962175,2025-10-01 18h55.57.285501 +0530,
86,0,86,[np.float64(0.20277777777777778)],[np.float64(-0.46805555555555556)],[1],[0],[0],[1.7744873000046937],['Target'],86,0,86,0,156.11054019999574,,5,156.08830930000113,156.11054019999574,156.11054019999574,0.008856200001901016,157.86293629999273,[np.float64(0.20277777777777778)],[np.float64(-0.46805555555555556)],[1],[0],[0],[1.7744873000046937],['Target'],ONE,001,2025-10-01_18h55.48.280,Visual Search Experiment,,2025.1.1,59.959191773962175,2025-10-01 18h55.57.285501 +0530,
87,0,87,[np.float64(0.4222222222222222)],[np.float64(0.18333333333333332)],[1],[0],[0],[1.7571606000128668],['Target'],87,0,87,0,157.8937500000029,,5,157.87173790000088,157.8937500000029,157.8937500000029,0.008721099991817027,159.6290519000031,[np.float64(0.4222222222222222)],[np.float64(0.18333333333333332)],[1],[0],[0],[1.7571606000128668],['Target'],ONE,001,2025-10-01_18h55.48.280,Visual Search Experiment,,2025.1.1,59.959191773962175,2025-10-01 18h55.57.285501 +0530,
88,0,88,"[np.float64(0.3347222222222222), np.float64(0.34444444444444444), np.float64(0.35555555555555557)]","[np.float64(-0.4222222222222222), np.float64(-0.4), np.float64(-0.43333333333333335)]","[1, 1, 1]","[0, 0, 0]","[0, 0, 0]","[1.6269095999887213, 2.626874099994893, 3.094212099997094]","[None, None, 'Target']",88,0,88,0,159.67818770000304,,10,159.65116219999618,159.67818770000304,159.67818770000304,0.022025700003723614,162.74551470000006,"[np.float64(0.3347222222222222), np.float64(0.34444444444444444), np.float64(0.35555555555555557)]","[np.float64(-0.4222222222222222), np.float64(-0.4), np.float64(-0.43333333333333335)]","[1, 1, 1]","[0, 0, 0]","[0, 0, 0]","[1.6269095999887213, 2.626874099994893, 3.094212099997094]","[None, None, 'Target']",ONE,001,2025-10-01_18h55.48.280,Visual Search Experiment,,2025.1.1,59.959191773962175,2025-10-01 18h55.57.285501 +0530,
89,0,89,[np.float64(0.009722222222222222)],[np.float64(-0.44305555555555554)],[1],[0],[0],[2.0405262999993283],['Target'],89,0,89,0,162.7773007999931,,5,162.75564020000456,162.7773007999931,162.7773007999931,0.009974200002034195,164.7963044999924,[np.float64(0.009722222222222222)],[np.float64(-0.44305555555555554)],[1],[0],[0],[2.0405262999993283],['Target'],ONE,001,2025-10-01_18h55.48.280,Visual Search Experiment,,2025.1.1,59.959191773962175,2025-10-01 18h55.57.285501 +0530,
90,0,90,[np.float64(-0.034722222222222224)],[np.float64(-0.022222222222222223)],[1],[0],[0],[1.3880331000109436],['Target'],90,0,90,0,164.82615700000315,,5,164.80678220000118,164.82615700000315,164.82615700000315,0.010379599989391863,166.19497179999598,[np.float64(-0.034722222222222224)],[np.float64(-0.022222222222222223)],[1],[0],[0],[1.3880331000109436],['Target'],ONE,001,2025-10-01_18h55.48.280,Visual Search Experiment,,2025.1.1,59.959191773962175,2025-10-01 18h55.57.285501 +0530,
91,0,91,[np.float64(-0.013888888888888888)],[np.float64(0.14305555555555555)],[1],[0],[0],[1.1389503000100376],['Target'],91,0,91,0,166.2259444999945,,5,166.20510749999085,166.2259444999945,166.2259444999945,0.010021399997640401,167.3441901000042,[np.float64(-0.013888888888888888)],[np.float64(0.14305555555555555)],[1],[0],[0],[1.1389503000100376],['Target'],ONE,001,2025-10-01_18h55.48.280,Visual Search Experiment,,2025.1.1,59.959191773962175,2025-10-01 18h55.57.285501 +0530,
92,0,92,[np.float64(-0.48055555555555557)],[np.float64(0.41388888888888886)],[1],[0],[0],[1.5631739999953425],['Target'],92,0,92,0,167.37549299999955,,10,167.36448530000052,167.37549299999955,167.37549299999955,0.020208999994792975,168.9278215999948,[np.float64(-0.48055555555555557)],[np.float64(0.41388888888888886)],[1],[0],[0],[1.5631739999953425],['Target'],ONE,001,2025-10-01_18h55.48.280,Visual Search Experiment,,2025.1.1,59.959191773962175,2025-10-01 18h55.57.285501 +0530,
93,0,93,"[np.float64(0.2125), np.float64(0.22083333333333333)]","[np.float64(0.18055555555555555), np.float64(0.18333333333333332)]","[1, 1]","[0, 0]","[0, 0]","[1.7915951000031782, 2.42407410001033]","[None, 'Target']",93,0,93,0,168.95872979999695,,5,168.9369083999918,168.95872979999695,168.95872979999695,0.008971699993708171,171.36115569999674,"[np.float64(0.2125), np.float64(0.22083333333333333)]","[np.float64(0.18055555555555555), np.float64(0.18333333333333332)]","[1, 1]","[0, 0]","[0, 0]","[1.7915951000031782, 2.42407410001033]","[None, 'Target']",ONE,001,2025-10-01_18h55.48.280,Visual Search Experiment,,2025.1.1,59.959191773962175,2025-10-01 18h55.57.285501 +0530,
94,0,94,[np.float64(0.0125)],[np.float64(0.1361111111111111)],[1],[0],[0],[1.0640882000006968],['Target'],94,0,94,0,171.3917022999958,,10,171.38037479999184,171.3917022999958,171.3917022999958,0.019116099996608682,172.44459030000144,[np.float64(0.0125)],[np.float64(0.1361111111111111)],[1],[0],[0],[1.0640882000006968],['Target'],ONE,001,2025-10-01_18h55.48.280,Visual Search Experiment,,2025.1.1,59.959191773962175,2025-10-01 18h55.57.285501 +0530,
95,0,95,[np.float64(-0.5111111111111111)],[np.float64(0.07916666666666666)],[1],[0],[0],[1.5652391000039643],['Target'],95,0,95,0,172.47548179999285,,10,172.4616815000045,172.47548179999285,172.47548179999285,0.016981199994916096,174.02705129999958,[np.float64(-0.5111111111111111)],[np.float64(0.07916666666666666)],[1],[0],[0],[1.5652391000039643],['Target'],ONE,001,2025-10-01_18h55.48.280,Visual Search Experiment,,2025.1.1,59.959191773962175,2025-10-01 18h55.57.285501 +0530,
96,0,96,[np.float64(0.19027777777777777)],[np.float64(-0.05416666666666667)],[1],[0],[0],[1.2846954999986337],['Target'],96,0,96,0,174.05831809999654,,10,174.0437333000009,174.05831809999654,174.05831809999654,0.01657120000163559,175.32855569999083,[np.float64(0.19027777777777777)],[np.float64(-0.05416666666666667)],[1],[0],[0],[1.2846954999986337],['Target'],ONE,001,2025-10-01_18h55.48.280,Visual Search Experiment,,2025.1.1,59.959191773962175,2025-10-01 18h55.57.285501 +0530,
97,0,97,[np.float64(-0.09027777777777778)],[np.float64(0.35)],[1],[0],[0],[1.4070001999934902],['Target'],97,0,97,0,175.35985140000412,,5,175.3371332999959,175.35985140000412,175.35985140000412,0.008478299991111271,176.74425899999915,[np.float64(-0.09027777777777778)],[np.float64(0.35)],[1],[0],[0],[1.4070001999934902],['Target'],ONE,001,2025-10-01_18h55.48.280,Visual Search Experiment,,2025.1.1,59.959191773962175,2025-10-01 18h55.57.285501 +0530,
98,0,98,[np.float64(0.3736111111111111)],[np.float64(0.32083333333333336)],[1],[0],[0],[1.098125100004836],['Target'],98,0,98,0,176.77553450000414,,10,176.7623248000018,176.77553450000414,176.77553450000414,0.017982100005610846,177.86058900000353,[np.float64(0.3736111111111111)],[np.float64(0.32083333333333336)],[1],[0],[0],[1.098125100004836],['Target'],ONE,001,2025-10-01_18h55.48.280,Visual Search Experiment,,2025.1.1,59.959191773962175,2025-10-01 18h55.57.285501 +0530,
99,0,99,[np.float64(-0.3472222222222222)],[np.float64(0.08888888888888889)],[1],[0],[0],[1.3414996000065003],['Target'],99,0,99,0,177.89262159999635,,5,177.86931310000364,177.89262159999635,177.89262159999635,0.008624900001450442,179.21094540000195,[np.float64(-0.3472222222222222)],[np.float64(0.08888888888888889)],[1],[0],[0],[1.3414996000065003],['Target'],ONE,001,2025-10-01_18h55.48.280,Visual Search Experiment,,2025.1.1,59.959191773962175,2025-10-01 18h55.57.285501 +0530,
100,0,100,"[np.float64(-0.17777777777777778), np.float64(-0.16805555555555557)]","[np.float64(-0.30277777777777776), np.float64(-0.3194444444444444)]","[1, 1]","[0, 0]","[0, 0]","[1.6152078999875812, 2.3300285000004806]","[None, 'Target']",100,0,100,0,179.24161149999418,,10,179.22909680000157,179.24161149999418,179.24161149999418,0.018055599997751415,181.55930599999556,"[np.float64(-0.17777777777777778), np.float64(-0.16805555555555557)]","[np.float64(-0.30277777777777776), np.float64(-0.3194444444444444)]","[1, 1]","[0, 0]","[0, 0]","[1.6152078999875812, 2.3300285000004806]","[None, 'Target']",ONE,001,2025-10-01_18h55.48.280,Visual Search Experiment,,2025.1.1,59.959191773962175,2025-10-01 18h55.57.285501 +0530,
101,0,101,[np.float64(0.16805555555555557)],[np.float64(0.13055555555555556)],[1],[0],[0],[1.557695600000443],['Target'],101,0,101,0,181.59104569999909,,5,181.5700855000032,181.59104569999909,181.59104569999909,0.010470299996086396,183.1279205000028,[np.float64(0.16805555555555557)],[np.float64(0.13055555555555556)],[1],[0],[0],[1.557695600000443],['Target'],ONE,001,2025-10-01_18h55.48.280,Visual Search Experiment,,2025.1.1,59.959191773962175,2025-10-01 18h55.57.285501 +0530,
102,0,102,[np.float64(0.31527777777777777)],[np.float64(-0.4736111111111111)],[1],[0],[0],[1.6395604999997886],['Target'],102,0,102,0,183.1583443999989,,5,183.13684259999718,183.1583443999989,183.1583443999989,0.008812400003080256,184.77652729999681,[np.float64(0.31527777777777777)],[np.float64(-0.4736111111111111)],[1],[0],[0],[1.6395604999997886],['Target'],ONE,001,2025-10-01_18h55.48.280,Visual Search Experiment,,2025.1.1,59.959191773962175,2025-10-01 18h55.57.285501 +0530,
103,0,103,[np.float64(0.3263888888888889)],[np.float64(-0.2263888888888889)],[1],[0],[0],[1.7338747000030708],['Target'],103,0,103,0,184.80783950000477,,10,184.79336969999713,184.80783950000477,184.80783950000477,0.016760800004703924,186.52737559999514,[np.float64(0.3263888888888889)],[np.float64(-0.2263888888888889)],[1],[0],[0],[1.7338747000030708],['Target'],ONE,001,2025-10-01_18h55.48.280,Visual Search Experiment,,2025.1.1,59.959191773962175,2025-10-01 18h55.57.285501 +0530,
104,0,104,[np.float64(-0.11805555555555555)],[np.float64(0.44305555555555554)],[1],[0],[0],[2.5973599000135437],['Target'],104,0,104,0,186.55800520000048,,10,186.54502039999352,186.55800520000048,186.55800520000048,0.01753850000386592,189.14251170000352,[np.float64(-0.11805555555555555)],[np.float64(0.44305555555555554)],[1],[0],[0],[2.5973599000135437],['Target'],ONE,001,2025-10-01_18h55.48.280,Visual Search Experiment,,2025.1.1,59.959191773962175,2025-10-01 18h55.57.285501 +0530,
105,0,105,"[np.float64(-0.4625), np.float64(-0.4791666666666667)]","[np.float64(-0.45416666666666666), np.float64(-0.44583333333333336)]","[1, 1]","[0, 0]","[0, 0]","[2.1245544999983395, 2.5752281000022776]","[None, 'Target']",105,0,105,0,189.17479269999603,,5,189.15096499999345,189.17479269999603,189.17479269999603,0.008347700000740588,191.72639670000353,"[np.float64(-0.4625), np.float64(-0.4791666666666667)]","[np.float64(-0.45416666666666666), np.float64(-0.44583333333333336)]","[1, 1]","[0, 0]","[0, 0]","[2.1245544999983395, 2.5752281000022776]","[None, 'Target']",ONE,001,2025-10-01_18h55.48.280,Visual Search Experiment,,2025.1.1,59.959191773962175,2025-10-01 18h55.57.285501 +0530,
106,0,106,[np.float64(0.08888888888888889)],[np.float64(0.08333333333333333)],[1],[0],[0],[1.9044418999983463],['Target'],106,0,106,0,191.7575252999959,,5,191.73823819999234,191.7575252999959,191.7575252999959,0.011611800000537187,193.64281340000161,[np.float64(0.08888888888888889)],[np.float64(0.08333333333333333)],[1],[0],[0],[1.9044418999983463],['Target'],ONE,001,2025-10-01_18h55.48.280,Visual Search Experiment,,2025.1.1,59.959191773962175,2025-10-01 18h55.57.285501 +0530,
107,0,107,[np.float64(-0.16111111111111112)],[np.float64(-0.025)],[1],[0],[0],[1.3061820000002626],['Target'],107,0,107,0,193.6735606000002,,5,193.65315539999574,193.6735606000002,193.6735606000002,0.010251600004266948,194.95950009999797,[np.float64(-0.16111111111111112)],[np.float64(-0.025)],[1],[0],[0],[1.3061820000002626],['Target'],ONE,001,2025-10-01_18h55.48.280,Visual Search Experiment,,2025.1.1,59.959191773962175,2025-10-01 18h55.57.285501 +0530,
108,0,108,[np.float64(0.3958333333333333)],[np.float64(0.3347222222222222)],[1],[0],[0],[1.2908432000112953],['Target'],108,0,108,0,194.99039510000148,,5,194.96787609999592,194.99039510000148,194.99039510000148,0.008293599996250123,196.25885410000046,[np.float64(0.3958333333333333)],[np.float64(0.3347222222222222)],[1],[0],[0],[1.2908432000112953],['Target'],ONE,001,2025-10-01_18h55.48.280,Visual Search Experiment,,2025.1.1,59.959191773962175,2025-10-01 18h55.57.285501 +0530,
109,0,109,[np.float64(0.15)],[np.float64(0.4930555555555556)],[1],[0],[0],[2.4071849000029033],['Target'],109,0,109,0,196.29035349999322,,5,196.26815079999506,196.29035349999322,196.29035349999322,0.00919929999508895,198.67547629999171,[np.float64(0.15)],[np.float64(0.4930555555555556)],[1],[0],[0],[2.4071849000029033],['Target'],ONE,001,2025-10-01_18h55.48.280,Visual Search Experiment,,2025.1.1,59.959191773962175,2025-10-01 18h55.57.285501 +0530,
110,0,110,[np.float64(-0.04027777777777778)],[np.float64(0.28888888888888886)],[1],[0],[0],[1.564562699990347],['Target'],110,0,110,0,198.70578399999067,,10,198.6939282999956,198.70578399999067,198.70578399999067,0.018357900000410154,200.2586225999985,[np.float64(-0.04027777777777778)],[np.float64(0.28888888888888886)],[1],[0],[0],[1.564562699990347],['Target'],ONE,001,2025-10-01_18h55.48.280,Visual Search Experiment,,2025.1.1,59.959191773962175,2025-10-01 18h55.57.285501 +0530,
111,0,111,[np.float64(0.4708333333333333)],[np.float64(0.17777777777777778)],[1],[0],[0],[1.565227800005232],['Target'],111,0,111,0,200.28936819999944,,10,200.27594269999827,200.28936819999944,200.28936819999944,0.0172104999946896,201.84130649999133,[np.float64(0.4708333333333333)],[np.float64(0.17777777777777778)],[1],[0],[0],[1.565227800005232],['Target'],ONE,001,2025-10-01_18h55.48.280,Visual Search Experiment,,2025.1.1,59.959191773962175,2025-10-01 18h55.57.285501 +0530,
112,0,112,[np.float64(-0.2972222222222222)],[np.float64(0.18055555555555555)],[1],[0],[0],[1.6165258000110043],['Target'],112,0,112,0,201.8728534999973,,10,201.85791379999137,201.8728534999973,201.8728534999973,0.016505399995367043,203.47461750000366,[np.float64(-0.2972222222222222)],[np.float64(0.18055555555555555)],[1],[0],[0],[1.6165258000110043],['Target'],ONE,001,2025-10-01_18h55.48.280,Visual Search Experiment,,2025.1.1,59.959191773962175,2025-10-01 18h55.57.285501 +0530,
113,0,113,"[np.float64(0.45416666666666666), np.float64(0.45)]","[np.float64(0.001388888888888889), np.float64(-0.018055555555555554)]","[1, 1]","[0, 0]","[0, 0]","[1.461581199997454, 1.9953963999869302]","[None, 'Target']",113,0,113,0,203.50545080000302,,10,203.4961473000003,203.50545080000302,203.50545080000302,0.02142180000373628,205.4916813000018,"[np.float64(0.45416666666666666), np.float64(0.45)]","[np.float64(0.001388888888888889), np.float64(-0.018055555555555554)]","[1, 1]","[0, 0]","[0, 0]","[1.461581199997454, 1.9953963999869302]","[None, 'Target']",ONE,001,2025-10-01_18h55.48.280,Visual Search Experiment,,2025.1.1,59.959191773962175,2025-10-01 18h55.57.285501 +0530,
114,0,114,[np.float64(-0.19305555555555556)],[np.float64(0.30972222222222223)],[1],[0],[0],[1.2468728000094416],['Target'],114,0,114,0,205.52155119999952,,10,205.5104963999911,205.52155119999952,205.52155119999952,0.018678899999940768,206.75750209999387,[np.float64(-0.19305555555555556)],[np.float64(0.30972222222222223)],[1],[0],[0],[1.2468728000094416],['Target'],ONE,001,2025-10-01_18h55.48.280,Visual Search Experiment,,2025.1.1,59.959191773962175,2025-10-01 18h55.57.285501 +0530,
115,0,115,[np.float64(0.2222222222222222)],[np.float64(0.4152777777777778)],[1],[0],[0],[1.2328634000004968],['Target'],115,0,115,0,206.78934869999648,,10,206.7744040999969,206.78934869999648,206.78934869999648,0.01680599999963306,208.0073998000007,[np.float64(0.2222222222222222)],[np.float64(0.4152777777777778)],[1],[0],[0],[1.2328634000004968],['Target'],ONE,001,2025-10-01_18h55.48.280,Visual Search Experiment,,2025.1.1,59.959191773962175,2025-10-01 18h55.57.285501 +0530,
116,0,116,[np.float64(-0.31666666666666665)],[np.float64(0.009722222222222222)],[1],[0],[0],[1.1563981999934185],['Target'],116,0,116,0,208.03861679999682,,5,208.01641749999544,208.03861679999682,208.03861679999682,0.008903199995984323,209.1729500999936,[np.float64(-0.31666666666666665)],[np.float64(0.009722222222222222)],[1],[0],[0],[1.1563981999934185],['Target'],ONE,001,2025-10-01_18h55.48.280,Visual Search Experiment,,2025.1.1,59.959191773962175,2025-10-01 18h55.57.285501 +0530,
117,0,117,[np.float64(-0.18472222222222223)],[np.float64(-0.39166666666666666)],[1],[0],[0],[2.075405399998999],['Target'],117,0,117,0,209.2052796999924,,5,209.18207450000045,209.2052796999924,209.2052796999924,0.009031300010974519,211.25761179999972,[np.float64(-0.18472222222222223)],[np.float64(-0.39166666666666666)],[1],[0],[0],[2.075405399998999],['Target'],ONE,001,2025-10-01_18h55.48.280,Visual Search Experiment,,2025.1.1,59.959191773962175,2025-10-01 18h55.57.285501 +0530,
118,0,118,[np.float64(0.07361111111111111)],[np.float64(0.47638888888888886)],[1],[0],[0],[2.2983497000095667],['Target'],118,0,118,0,211.2879735000024,,10,211.27551099999982,211.2879735000024,211.2879735000024,0.017796500003896654,213.57398570000078,[np.float64(0.07361111111111111)],[np.float64(0.47638888888888886)],[1],[0],[0],[2.2983497000095667],['Target'],ONE,001,2025-10-01_18h55.48.280,Visual Search Experiment,,2025.1.1,59.959191773962175,2025-10-01 18h55.57.285501 +0530,
119,0,119,[np.float64(-0.1638888888888889)],[np.float64(-0.21388888888888888)],[1],[0],[0],[1.6428083999926457],['Target'],119,0,119,0,213.60490789999312,,5,213.58240469999146,213.60490789999312,213.60490789999312,0.008319100001244806,215.22534360000282,[np.float64(-0.1638888888888889)],[np.float64(-0.21388888888888888)],[1],[0],[0],[1.6428083999926457],['Target'],ONE,001,2025-10-01_18h55.48.280,Visual Search Experiment,,2025.1.1,59.959191773962175,2025-10-01 18h55.57.285501 +0530,
120,0,120,[np.float64(-0.11388888888888889)],[np.float64(0.24583333333333332)],[1],[0],[0],[1.4473521000036271],['Target'],120,0,120,0,215.25505639999756,,10,215.24262469999667,215.25505639999756,215.25505639999756,0.017184700001962483,216.6901116999943,[np.float64(-0.11388888888888889)],[np.float64(0.24583333333333332)],[1],[0],[0],[1.4473521000036271],['Target'],ONE,001,2025-10-01_18h55.48.280,Visual Search Experiment,,2025.1.1,59.959191773962175,2025-10-01 18h55.57.285501 +0530,
121,0,121,[np.float64(-0.06111111111111111)],[np.float64(0.325)],[1],[0],[0],[1.1172302999912063],['Target'],121,0,121,0,216.7213569000014,,10,216.70806289999746,216.7213569000014,216.7213569000014,0.017836900005931966,217.82542919999105,[np.float64(-0.06111111111111111)],[np.float64(0.325)],[1],[0],[0],[1.1172302999912063],['Target'],ONE,001,2025-10-01_18h55.48.280,Visual Search Experiment,,2025.1.1,59.959191773962175,2025-10-01 18h55.57.285501 +0530,
122,0,122,[np.float64(0.45694444444444443)],[np.float64(0.18472222222222223)],[1],[0],[0],[2.489094299991848],['Target'],122,0,122,0,217.85527539999748,,5,217.83457249999628,217.85527539999748,217.85527539999748,0.009027799998875707,220.32380499999272,[np.float64(0.45694444444444443)],[np.float64(0.18472222222222223)],[1],[0],[0],[2.489094299991848],['Target'],ONE,001,2025-10-01_18h55.48.280,Visual Search Experiment,,2025.1.1,59.959191773962175,2025-10-01 18h55.57.285501 +0530,
123,0,123,[np.float64(0.41388888888888886)],[np.float64(-0.4652777777777778)],[1],[0],[0],[2.1971030999993673],['Target'],123,0,123,0,220.3542885999923,,10,220.3421573999949,220.3542885999923,220.3542885999923,0.01823189998685848,222.53939180000452,[np.float64(0.41388888888888886)],[np.float64(-0.4652777777777778)],[1],[0],[0],[2.1971030999993673],['Target'],ONE,001,2025-10-01_18h55.48.280,Visual Search Experiment,,2025.1.1,59.959191773962175,2025-10-01 18h55.57.285501 +0530,
124,0,124,[np.float64(-0.12083333333333333)],[np.float64(0.2833333333333333)],[1],[0],[0],[1.581470699995407],['Target'],124,0,124,0,222.5704196000006,,10,222.5580925999966,222.5704196000006,222.5704196000006,0.018592300009913743,224.13972510000167,[np.float64(-0.12083333333333333)],[np.float64(0.2833333333333333)],[1],[0],[0],[1.581470699995407],['Target'],ONE,001,2025-10-01_18h55.48.280,Visual Search Experiment,,2025.1.1,59.959191773962175,2025-10-01 18h55.57.285501 +0530,
125,0,125,[np.float64(0.5)],[np.float64(-0.12777777777777777)],[1],[0],[0],[1.6894768999918597],['Target'],125,0,125,0,224.1706004000007,,5,224.1494246999937,224.1706004000007,224.1706004000007,0.009593500013579614,225.83903170000121,[np.float64(0.5)],[np.float64(-0.12777777777777777)],[1],[0],[0],[1.6894768999918597],['Target'],ONE,001,2025-10-01_18h55.48.280,Visual Search Experiment,,2025.1.1,59.959191773962175,2025-10-01 18h55.57.285501 +0530,
126,0,126,[np.float64(-0.016666666666666666)],[np.float64(-0.1597222222222222)],[1],[0],[0],[1.4143894000008004],['Target'],126,0,126,0,225.8706150999933,,10,225.85696520000056,225.8706150999933,225.8706150999933,0.017820499997469597,227.27148319999105,[np.float64(-0.016666666666666666)],[np.float64(-0.1597222222222222)],[1],[0],[0],[1.4143894000008004],['Target'],ONE,001,2025-10-01_18h55.48.280,Visual Search Experiment,,2025.1.1,59.959191773962175,2025-10-01 18h55.57.285501 +0530,
127,0,127,[np.float64(0.08194444444444444)],[np.float64(0.08611111111111111)],[1],[0],[0],[0.9202409999998054],['Target'],127,0,127,0,227.3031050999998,,10,227.28809560000082,227.3031050999998,227.3031050999998,0.016497499993420206,228.2084826999926,[np.float64(0.08194444444444444)],[np.float64(0.08611111111111111)],[1],[0],[0],[0.9202409999998054],['Target'],ONE,001,2025-10-01_18h55.48.280,Visual Search Experiment,,2025.1.1,59.959191773962175,2025-10-01 18h55.57.285501 +0530,
128,0,128,[np.float64(-0.38055555555555554)],[np.float64(-0.4583333333333333)],[1],[0],[0],[2.550726000001305],['Target'],128,0,128,0,228.23631239999668,,5,228.220693700001,228.23631239999668,228.23631239999668,0.012101899992558174,230.7715612000029,[np.float64(-0.38055555555555554)],[np.float64(-0.4583333333333333)],[1],[0],[0],[2.550726000001305],['Target'],ONE,001,2025-10-01_18h55.48.280,Visual Search Experiment,,2025.1.1,59.959191773962175,2025-10-01 18h55.57.285501 +0530,
129,0,129,[np.float64(-0.20694444444444443)],[np.float64(0.24861111111111112)],[1],[0],[0],[1.98011159998714],['Target'],129,0,129,0,230.80287179999868,,10,230.791756599996,230.80287179999868,230.80287179999868,0.02012020000256598,232.77200879999145,[np.float64(-0.20694444444444443)],[np.float64(0.24861111111111112)],[1],[0],[0],[1.98011159998714],['Target'],ONE,001,2025-10-01_18h55.48.280,Visual Search Experiment,,2025.1.1,59.959191773962175,2025-10-01 18h55.57.285501 +0530,
130,0,130,[np.float64(0.0763888888888889)],[np.float64(-0.4041666666666667)],[1],[0],[0],[2.440350100005162],['Target'],130,0,130,0,232.80290379999497,,5,232.7807846999931,232.80290379999497,232.80290379999497,0.00866439999663271,235.22126019999268,[np.float64(0.0763888888888889)],[np.float64(-0.4041666666666667)],[1],[0],[0],[2.440350100005162],['Target'],ONE,001,2025-10-01_18h55.48.280,Visual Search Experiment,,2025.1.1,59.959191773962175,2025-10-01 18h55.57.285501 +0530,
131,0,131,[np.float64(0.041666666666666664)],[np.float64(0.2777777777777778)],[1],[0],[0],[1.4159082999976818],['Target'],131,0,131,0,235.25242779999098,,10,235.23794510000153,235.25242779999098,235.25242779999098,0.01660779998928774,236.6539816000004,[np.float64(0.041666666666666664)],[np.float64(0.2777777777777778)],[1],[0],[0],[1.4159082999976818],['Target'],ONE,001,2025-10-01_18h55.48.280,Visual Search Experiment,,2025.1.1,59.959191773962175,2025-10-01 18h55.57.285501 +0530,
132,0,132,[np.float64(0.3819444444444444)],[np.float64(0.022222222222222223)],[1],[0],[0],[1.22519129999273],['Target'],132,0,132,0,236.6870334999985,,5,236.6626019999967,236.6870334999985,236.6870334999985,0.00851169999805279,237.88792269999976,[np.float64(0.3819444444444444)],[np.float64(0.022222222222222223)],[1],[0],[0],[1.22519129999273],['Target'],ONE,001,2025-10-01_18h55.48.280,Visual Search Experiment,,2025.1.1,59.959191773962175,2025-10-01 18h55.57.285501 +0530,
133,0,133,[np.float64(-0.15416666666666667)],[np.float64(-0.29305555555555557)],[1],[0],[0],[1.3720833000115817],['Target'],133,0,133,0,237.9190380999935,,5,237.89871680000215,237.9190380999935,237.9190380999935,0.01070379999873694,239.2709329999925,[np.float64(-0.15416666666666667)],[np.float64(-0.29305555555555557)],[1],[0],[0],[1.3720833000115817],['Target'],ONE,001,2025-10-01_18h55.48.280,Visual Search Experiment,,2025.1.1,59.959191773962175,2025-10-01 18h55.57.285501 +0530,
134,0,134,[np.float64(-0.10277777777777777)],[np.float64(0.004166666666666667)],[1],[0],[0],[1.0988116000080481],['Target'],134,0,134,0,239.3023119999998,,10,239.2882183000038,239.3023119999998,239.3023119999998,0.01720569998724386,240.38716129999375,[np.float64(-0.10277777777777777)],[np.float64(0.004166666666666667)],[1],[0],[0],[1.0988116000080481],['Target'],ONE,001,2025-10-01_18h55.48.280,Visual Search Experiment,,2025.1.1,59.959191773962175,2025-10-01 18h55.57.285501 +0530,
135,0,135,[np.float64(0.1986111111111111)],[np.float64(0.17222222222222222)],[1],[0],[0],[1.4080982000014046],['Target'],135,0,135,0,240.41859079999267,,5,240.39582730000257,240.41859079999267,240.41859079999267,0.00855920001049526,241.8040583999973,[np.float64(0.1986111111111111)],[np.float64(0.17222222222222222)],[1],[0],[0],[1.4080982000014046],['Target'],ONE,001,2025-10-01_18h55.48.280,Visual Search Experiment,,2025.1.1,59.959191773962175,2025-10-01 18h55.57.285501 +0530,
136,0,136,[np.float64(-0.4597222222222222)],[np.float64(-0.002777777777777778)],[1],[0],[0],[1.9581755999970483],['Target'],136,0,136,0,241.8350625000021,,5,241.8155989999941,241.8350625000021,241.8350625000021,0.011457699991296977,243.77391299999726,[np.float64(-0.4597222222222222)],[np.float64(-0.002777777777777778)],[1],[0],[0],[1.9581755999970483],['Target'],ONE,001,2025-10-01_18h55.48.280,Visual Search Experiment,,2025.1.1,59.959191773962175,2025-10-01 18h55.57.285501 +0530,
137,0,137,"[np.float64(-0.0125), np.float64(-0.001388888888888889)]","[np.float64(-0.48333333333333334), np.float64(-0.44027777777777777)]","[1, 1]","[0, 0]","[0, 0]","[1.1885948999988614, 1.754624799999874]","[None, 'Target']",137,0,137,0,243.80579529999522,,5,243.78227019999758,243.80579529999522,243.80579529999522,0.008263299998361617,245.53706509999756,"[np.float64(-0.0125), np.float64(-0.001388888888888889)]","[np.float64(-0.48333333333333334), np.float64(-0.44027777777777777)]","[1, 1]","[0, 0]","[0, 0]","[1.1885948999988614, 1.754624799999874]","[None, 'Target']",ONE,001,2025-10-01_18h55.48.280,Visual Search Experiment,,2025.1.1,59.959191773962175,2025-10-01 18h55.57.285501 +0530,
138,0,138,[np.float64(0.26666666666666666)],[np.float64(0.25972222222222224)],[1],[0],[0],[2.0215788999921642],['Target'],138,0,138,0,245.65216549999604,,10,245.6159306999907,245.65216549999604,245.65216549999604,0.07863600000564475,247.63765099999728,[np.float64(0.26666666666666666)],[np.float64(0.25972222222222224)],[1],[0],[0],[2.0215788999921642],['Target'],ONE,001,2025-10-01_18h55.48.280,Visual Search Experiment,,2025.1.1,59.959191773962175,2025-10-01 18h55.57.285501 +0530,
139,0,139,[np.float64(0.027777777777777776)],[np.float64(0.31666666666666665)],[1],[0],[0],[1.2571228999877349],['Target'],139,0,139,0,247.66889939999965,,5,247.64634740000474,247.66889939999965,247.66889939999965,0.008596900006523356,248.9035942000046,[np.float64(0.027777777777777776)],[np.float64(0.31666666666666665)],[1],[0],[0],[1.2571228999877349],['Target'],ONE,001,2025-10-01_18h55.48.280,Visual Search Experiment,,2025.1.1,59.959191773962175,2025-10-01 18h55.57.285501 +0530,
140,0,140,[np.float64(-0.3819444444444444)],[np.float64(0.022222222222222223)],[1],[0],[0],[1.291216000012355],['Target'],140,0,140,0,248.9348275999946,,5,248.9116914000042,248.9348275999946,248.9348275999946,0.00801849999697879,250.20303299999796,[np.float64(-0.3819444444444444)],[np.float64(0.022222222222222223)],[1],[0],[0],[1.291216000012355],['Target'],ONE,001,2025-10-01_18h55.48.280,Visual Search Experiment,,2025.1.1,59.959191773962175,2025-10-01 18h55.57.285501 +0530,
141,0,141,[np.float64(0.17222222222222222)],[np.float64(0.16666666666666666)],[1],[0],[0],[1.0408877000008943],['Target'],141,0,141,0,250.23424190000514,,5,250.2119920999976,250.23424190000514,250.23424190000514,0.008878900000127032,251.25300709999283,[np.float64(0.17222222222222222)],[np.float64(0.16666666666666666)],[1],[0],[0],[1.0408877000008943],['Target'],ONE,001,2025-10-01_18h55.48.280,Visual Search Experiment,,2025.1.1,59.959191773962175,2025-10-01 18h55.57.285501 +0530,
142,0,142,[np.float64(-0.35138888888888886)],[np.float64(0.24166666666666667)],[1],[0],[0],[1.1468155000038678],['Target'],142,0,142,0,251.2843101000035,,10,251.27262360000168,251.2843101000035,251.2843101000035,0.019558799991500564,252.4195885999943,[np.float64(-0.35138888888888886)],[np.float64(0.24166666666666667)],[1],[0],[0],[1.1468155000038678],['Target'],ONE,001,2025-10-01_18h55.48.280,Visual Search Experiment,,2025.1.1,59.959191773962175,2025-10-01 18h55.57.285501 +0530,
143,0,143,[np.float64(0.15416666666666667)],[np.float64(-0.14583333333333334)],[1],[0],[0],[1.4066834999975981],['Target'],143,0,143,0,252.45123120000062,,5,252.42916590000095,252.45123120000062,252.45123120000062,0.009470600009080954,253.83600399999705,[np.float64(0.15416666666666667)],[np.float64(-0.14583333333333334)],[1],[0],[0],[1.4066834999975981],['Target'],ONE,001,2025-10-01_18h55.48.280,Visual Search Experiment,,2025.1.1,59.959191773962175,2025-10-01 18h55.57.285501 +0530,
144,0,144,[np.float64(0.001388888888888889)],[np.float64(0.1361111111111111)],[1],[0],[0],[1.3476853000029223],['Target'],144,0,144,0,253.86682519999158,,10,253.8549681000004,253.86682519999158,253.86682519999158,0.018880899995565414,255.20278350000444,[np.float64(0.001388888888888889)],[np.float64(0.1361111111111111)],[1],[0],[0],[1.3476853000029223],['Target'],ONE,001,2025-10-01_18h55.48.280,Visual Search Experiment,,2025.1.1,59.959191773962175,2025-10-01 18h55.57.285501 +0530,
145,0,145,[np.float64(0.08888888888888889)],[np.float64(-0.18194444444444444)],[1],[0],[0],[2.082095699995989],['Target'],145,0,145,0,255.23401359999843,,10,255.22162969999772,255.23401359999843,255.23401359999843,0.01874379999935627,257.30386010000075,[np.float64(0.08888888888888889)],[np.float64(-0.18194444444444444)],[1],[0],[0],[2.082095699995989],['Target'],ONE,001,2025-10-01_18h55.48.280,Visual Search Experiment,,2025.1.1,59.959191773962175,2025-10-01 18h55.57.285501 +0530,
146,0,146,[np.float64(-0.25)],[np.float64(-0.44305555555555554)],[1],[0],[0],[1.4315817000024254],['Target'],146,0,146,0,257.33393599999545,,10,257.3207584000047,257.33393599999545,257.33393599999545,0.016797899996163324,258.75247009999293,[np.float64(-0.25)],[np.float64(-0.44305555555555554)],[1],[0],[0],[1.4315817000024254],['Target'],ONE,001,2025-10-01_18h55.48.280,Visual Search Experiment,,2025.1.1,59.959191773962175,2025-10-01 18h55.57.285501 +0530,
147,0,147,"[np.float64(0.4638888888888889), np.float64(0.4777777777777778)]","[np.float64(0.14166666666666666), np.float64(0.15)]","[1, 1]","[0, 0]","[0, 0]","[1.4984644000069238, 3.016568000006373]","[None, 'Target']",147,0,147,0,258.78373529999226,,10,258.7696828000044,258.78373529999226,258.78373529999226,0.01711570000043139,261.78640460000315,"[np.float64(0.4638888888888889), np.float64(0.4777777777777778)]","[np.float64(0.14166666666666666), np.float64(0.15)]","[1, 1]","[0, 0]","[0, 0]","[1.4984644000069238, 3.016568000006373]","[None, 'Target']",ONE,001,2025-10-01_18h55.48.280,Visual Search Experiment,,2025.1.1,59.959191773962175,2025-10-01 18h55.57.285501 +0530,
148,0,148,[np.float64(0.21944444444444444)],[np.float64(0.013888888888888888)],[1],[0],[0],[1.4323770000046352],['Target'],148,0,148,0,261.8181201999978,,10,261.8032664999919,261.8181201999978,261.8181201999978,0.01672369999869261,263.23578930000076,[np.float64(0.21944444444444444)],[np.float64(0.013888888888888888)],[1],[0],[0],[1.4323770000046352],['Target'],ONE,001,2025-10-01_18h55.48.280,Visual Search Experiment,,2025.1.1,59.959191773962175,2025-10-01 18h55.57.285501 +0530,
149,0,149,[np.float64(-0.42916666666666664)],[np.float64(0.40694444444444444)],[1],[0],[0],[1.5742124000098556],['Target'],149,0,149,0,263.26737980000325,,5,263.2451757999952,263.26737980000325,263.26737980000325,0.009262399995350279,264.81952140000067,[np.float64(-0.42916666666666664)],[np.float64(0.40694444444444444)],[1],[0],[0],[1.5742124000098556],['Target'],ONE,001,2025-10-01_18h55.48.280,Visual Search Experiment,,2025.1.1,59.959191773962175,2025-10-01 18h55.57.285501 +0530,
150,0,150,[np.float64(0.34305555555555556)],[np.float64(-0.2361111111111111)],[1],[0],[0],[1.3822615999961272],['Target'],150,0,150,0,264.8500952000031,,10,264.83747830000357,264.8500952000031,264.8500952000031,0.017862399996374734,266.21988409999176,[np.float64(0.34305555555555556)],[np.float64(-0.2361111111111111)],[1],[0],[0],[1.3822615999961272],['Target'],ONE,001,2025-10-01_18h55.48.280,Visual Search Experiment,,2025.1.1,59.959191773962175,2025-10-01 18h55.57.285501 +0530,
151,0,151,[np.float64(0.21388888888888888)],[np.float64(0.3236111111111111)],[1],[0],[0],[1.4142102000041632],['Target'],151,0,151,0,266.2500585999951,,10,266.2376871000015,266.2500585999951,266.2500585999951,0.017685799990431406,267.65202670000144,[np.float64(0.21388888888888888)],[np.float64(0.3236111111111111)],[1],[0],[0],[1.4142102000041632],['Target'],ONE,001,2025-10-01_18h55.48.280,Visual Search Experiment,,2025.1.1,59.959191773962175,2025-10-01 18h55.57.285501 +0530,
152,0,152,[np.float64(-0.12777777777777777)],[np.float64(0.37222222222222223)],[1],[0],[0],[1.224558599991724],['Target'],152,0,152,0,267.6835374999937,,5,267.66069209999114,267.6835374999937,267.6835374999937,0.008563399998820387,268.8853834000038,[np.float64(-0.12777777777777777)],[np.float64(0.37222222222222223)],[1],[0],[0],[1.224558599991724],['Target'],ONE,001,2025-10-01_18h55.48.280,Visual Search Experiment,,2025.1.1,59.959191773962175,2025-10-01 18h55.57.285501 +0530,
153,0,153,[np.float64(-0.34305555555555556)],[np.float64(-0.016666666666666666)],[1],[0],[0],[1.7903190999932121],['Target'],153,0,153,0,268.9161844999908,,5,268.8943849999923,268.9161844999908,268.9161844999908,0.00890530001197476,270.68484469999385,[np.float64(-0.34305555555555556)],[np.float64(-0.016666666666666666)],[1],[0],[0],[1.7903190999932121],['Target'],ONE,001,2025-10-01_18h55.48.280,Visual Search Experiment,,2025.1.1,59.959191773962175,2025-10-01 18h55.57.285501 +0530,
154,0,154,"[np.float64(-0.44027777777777777), np.float64(-0.4166666666666667)]","[np.float64(-0.2708333333333333), np.float64(-0.2652777777777778)]","[1, 1]","[0, 0]","[0, 0]","[1.2230675000027986, 1.739537500005099]","[None, 'Target']",154,0,154,0,270.71634939999785,,5,270.6943847999937,270.71634939999785,270.71634939999785,0.00945480000518728,272.4340547000029,"[np.float64(-0.44027777777777777), np.float64(-0.4166666666666667)]","[np.float64(-0.2708333333333333), np.float64(-0.2652777777777778)]","[1, 1]","[0, 0]","[0, 0]","[1.2230675000027986, 1.739537500005099]","[None, 'Target']",ONE,001,2025-10-01_18h55.48.280,Visual Search Experiment,,2025.1.1,59.959191773962175,2025-10-01 18h55.57.285501 +0530,
155,0,155,[np.float64(0.48194444444444445)],[np.float64(0.28194444444444444)],[1],[0],[0],[2.0835447999997996],['Target'],155,0,155,0,272.4658975999919,,10,272.45110439999553,272.4658975999919,272.4658975999919,0.01694380000117235,274.53483190000406,[np.float64(0.48194444444444445)],[np.float64(0.28194444444444444)],[1],[0],[0],[2.0835447999997996],['Target'],ONE,001,2025-10-01_18h55.48.280,Visual Search Experiment,,2025.1.1,59.959191773962175,2025-10-01 18h55.57.285501 +0530,
156,0,156,[np.float64(-0.2777777777777778)],[np.float64(0.44722222222222224)],[1],[0],[0],[1.5813040000066394],['Target'],156,0,156,0,274.5662719999964,,10,274.5525864999945,274.5662719999964,274.5662719999964,0.017571400007000193,276.13403289999405,[np.float64(-0.2777777777777778)],[np.float64(0.44722222222222224)],[1],[0],[0],[1.5813040000066394],['Target'],ONE,001,2025-10-01_18h55.48.280,Visual Search Experiment,,2025.1.1,59.959191773962175,2025-10-01 18h55.57.285501 +0530,
157,0,157,[np.float64(0.1361111111111111)],[np.float64(-0.4597222222222222)],[1],[0],[0],[1.7756194000103278],['Target'],157,0,157,0,276.164881699995,,5,276.1428479000024,276.164881699995,276.164881699995,0.008699500001966953,277.9186239999981,[np.float64(0.1361111111111111)],[np.float64(-0.4597222222222222)],[1],[0],[0],[1.7756194000103278],['Target'],ONE,001,2025-10-01_18h55.48.280,Visual Search Experiment,,2025.1.1,59.959191773962175,2025-10-01 18h55.57.285501 +0530,
158,0,158,[np.float64(-0.1527777777777778)],[np.float64(-0.2791666666666667)],[1],[0],[0],[1.4803232999984175],['Target'],158,0,158,0,277.94880489999196,,10,277.93695119999757,277.94880489999196,277.94880489999196,0.018233700000564568,279.4174503999966,[np.float64(-0.1527777777777778)],[np.float64(-0.2791666666666667)],[1],[0],[0],[1.4803232999984175],['Target'],ONE,001,2025-10-01_18h55.48.280,Visual Search Experiment,,2025.1.1,59.959191773962175,2025-10-01 18h55.57.285501 +0530,
159,0,159,[np.float64(0.08888888888888889)],[np.float64(0.20416666666666666)],[1],[0],[0],[1.3479860000079498],['Target'],159,0,159,0,279.4487313999998,,10,279.43480410000484,279.4487313999998,279.4487313999998,0.01720069999282714,280.7829284000036,[np.float64(0.08888888888888889)],[np.float64(0.20416666666666666)],[1],[0],[0],[1.3479860000079498],['Target'],ONE,001,2025-10-01_18h55.48.280,Visual Search Experiment,,2025.1.1,59.959191773962175,2025-10-01 18h55.57.285501 +0530,
160,0,160,[np.float64(0.1763888888888889)],[np.float64(-0.14444444444444443)],[1],[0],[0],[1.4169098999991547],['Target'],160,0,160,0,280.8153004999913,,10,280.7998821999936,280.8153004999913,280.8153004999913,0.01684430000022985,282.2169281999959,[np.float64(0.1763888888888889)],[np.float64(-0.14444444444444443)],[1],[0],[0],[1.4169098999991547],['Target'],ONE,001,2025-10-01_18h55.48.280,Visual Search Experiment,,2025.1.1,59.959191773962175,2025-10-01 18h55.57.285501 +0530,
161,0,161,[np.float64(0.24166666666666667)],[np.float64(-0.4861111111111111)],[1],[0],[0],[1.325358200003393],['Target'],161,0,161,0,282.2484950999933,,5,282.22557660000166,282.2484950999933,282.2484950999933,0.008535200002370402,283.55107990000397,[np.float64(0.24166666666666667)],[np.float64(-0.4861111111111111)],[1],[0],[0],[1.325358200003393],['Target'],ONE,001,2025-10-01_18h55.48.280,Visual Search Experiment,,2025.1.1,59.959191773962175,2025-10-01 18h55.57.285501 +0530,
162,0,162,[np.float64(-0.3888888888888889)],[np.float64(0.4361111111111111)],[1],[0],[0],[1.9311089000111679],['Target'],162,0,162,0,283.58112309999706,,10,283.56890759999806,283.58112309999706,283.58112309999706,0.01773160000448115,285.5001424999937,[np.float64(-0.3888888888888889)],[np.float64(0.4361111111111111)],[1],[0],[0],[1.9311089000111679],['Target'],ONE,001,2025-10-01_18h55.48.280,Visual Search Experiment,,2025.1.1,59.959191773962175,2025-10-01 18h55.57.285501 +0530,
163,0,163,[np.float64(-0.30972222222222223)],[np.float64(0.39861111111111114)],[1],[0],[0],[1.1173220999917248],['Target'],163,0,163,0,285.5316060000041,,10,285.5166518000042,285.5316060000041,285.5316060000041,0.016412999990279786,286.6341084000014,[np.float64(-0.30972222222222223)],[np.float64(0.39861111111111114)],[1],[0],[0],[1.1173220999917248],['Target'],ONE,001,2025-10-01_18h55.48.280,Visual Search Experiment,,2025.1.1,59.959191773962175,2025-10-01 18h55.57.285501 +0530,
164,0,164,[np.float64(0.4861111111111111)],[np.float64(-0.15555555555555556)],[1],[0],[0],[1.707197099996847],['Target'],164,0,164,0,286.6644133999944,,5,286.6440166999964,286.6644133999944,286.6644133999944,0.009793100005481392,288.3513485000003,[np.float64(0.4861111111111111)],[np.float64(-0.15555555555555556)],[1],[0],[0],[1.707197099996847],['Target'],ONE,001,2025-10-01_18h55.48.280,Visual Search Experiment,,2025.1.1,59.959191773962175,2025-10-01 18h55.57.285501 +0530,
165,0,165,[np.float64(0.15555555555555556)],[np.float64(-0.15555555555555556)],[1],[0],[0],[1.6632010999892373],['Target'],165,0,165,0,288.38116429999354,,10,288.3690945999988,288.38116429999354,288.38116429999354,0.01765480000176467,290.0324408000015,[np.float64(0.15555555555555556)],[np.float64(-0.15555555555555556)],[1],[0],[0],[1.6632010999892373],['Target'],ONE,001,2025-10-01_18h55.48.280,Visual Search Experiment,,2025.1.1,59.959191773962175,2025-10-01 18h55.57.285501 +0530,
166,0,166,"[np.float64(0.15694444444444444), np.float64(0.19027777777777777)]","[np.float64(0.006944444444444444), np.float64(0.018055555555555554)]","[1, 1]","[0, 0]","[0, 0]","[1.2151884999912, 4.782833799996297]","[None, 'Target']",166,0,166,0,290.0635329999932,,10,290.0503166999988,290.0635329999932,290.0635329999932,0.017775899992557243,294.83328710000205,"[np.float64(0.15694444444444444), np.float64(0.19027777777777777)]","[np.float64(0.006944444444444444), np.float64(0.018055555555555554)]","[1, 1]","[0, 0]","[0, 0]","[1.2151884999912, 4.782833799996297]","[None, 'Target']",ONE,001,2025-10-01_18h55.48.280,Visual Search Experiment,,2025.1.1,59.959191773962175,2025-10-01 18h55.57.285501 +0530,
167,0,167,[np.float64(0.30694444444444446)],[np.float64(-0.09583333333333334)],[1],[0],[0],[1.4407428000122309],['Target'],167,0,167,0,294.86361259999103,,5,294.8424803999951,294.86361259999103,294.86361259999103,0.009057200004463084,296.28338349999103,[np.float64(0.30694444444444446)],[np.float64(-0.09583333333333334)],[1],[0],[0],[1.4407428000122309],['Target'],ONE,001,2025-10-01_18h55.48.280,Visual Search Experiment,,2025.1.1,59.959191773962175,2025-10-01 18h55.57.285501 +0530,
168,0,168,[np.float64(-0.10833333333333334)],[np.float64(0.05416666666666667)],[1],[0],[0],[2.2305900000064867],['Target'],168,0,168,0,296.3128616000031,,10,296.301899099999,296.3128616000031,296.3128616000031,0.01841720000084024,298.53262909999467,[np.float64(-0.10833333333333334)],[np.float64(0.05416666666666667)],[1],[0],[0],[2.2305900000064867],['Target'],ONE,001,2025-10-01_18h55.48.280,Visual Search Experiment,,2025.1.1,59.959191773962175,2025-10-01 18h55.57.285501 +0530,
169,0,169,[np.float64(-0.22777777777777777)],[np.float64(0.46111111111111114)],[1],[0],[0],[9.674198300010175],['Target'],169,0,169,0,298.5640352999908,,5,298.5415223000018,298.5640352999908,298.5640352999908,0.00877270000637509,308.21585269999923,[np.float64(-0.22777777777777777)],[np.float64(0.46111111111111114)],[1],[0],[0],[9.674198300010175],['Target'],ONE,001,2025-10-01_18h55.48.280,Visual Search Experiment,,2025.1.1,59.959191773962175,2025-10-01 18h55.57.285501 +0530,
170,0,170,[np.float64(-0.3)],[np.float64(-0.25833333333333336)],[1],[0],[0],[1.8213303000084125],['Target'],170,0,170,0,308.2456444999989,,5,308.225425800003,308.2456444999989,308.2456444999989,0.009479800006374717,310.0468849000026,[np.float64(-0.3)],[np.float64(-0.25833333333333336)],[1],[0],[0],[1.8213303000084125],['Target'],ONE,001,2025-10-01_18h55.48.280,Visual Search Experiment,,2025.1.1,59.959191773962175,2025-10-01 18h55.57.285501 +0530,
171,0,171,[np.float64(-0.4)],[np.float64(0.42916666666666664)],[1],[0],[0],[1.616860699999961],['Target'],171,0,171,0,310.0793574999989,,10,310.06379719999677,310.0793574999989,310.0793574999989,0.016830900000059046,311.6807922000007,[np.float64(-0.4)],[np.float64(0.42916666666666664)],[1],[0],[0],[1.616860699999961],['Target'],ONE,001,2025-10-01_18h55.48.280,Visual Search Experiment,,2025.1.1,59.959191773962175,2025-10-01 18h55.57.285501 +0530,
172,0,172,"[np.float64(-0.45555555555555555), np.float64(-0.4375)]","[np.float64(0.12638888888888888), np.float64(0.13333333333333333)]","[1, 1]","[0, 0]","[0, 0]","[1.1632257000019308, 1.8458454000065103]","[None, 'Target']",172,0,172,0,311.72891409999283,,10,311.7014371999976,311.72891409999283,311.72891409999283,0.020530499998130836,313.54742099999567,"[np.float64(-0.45555555555555555), np.float64(-0.4375)]","[np.float64(0.12638888888888888), np.float64(0.13333333333333333)]","[1, 1]","[0, 0]","[0, 0]","[1.1632257000019308, 1.8458454000065103]","[None, 'Target']",ONE,001,2025-10-01_18h55.48.280,Visual Search Experiment,,2025.1.1,59.959191773962175,2025-10-01 18h55.57.285501 +0530,
173,0,173,[np.float64(-0.041666666666666664)],[np.float64(-0.08055555555555556)],[1],[0],[0],[1.731893999996828],['Target'],173,0,173,0,313.5782201999973,,10,313.56536219999543,313.5782201999973,313.5782201999973,0.017802900008973666,315.2973881999933,[np.float64(-0.041666666666666664)],[np.float64(-0.08055555555555556)],[1],[0],[0],[1.731893999996828],['Target'],ONE,001,2025-10-01_18h55.48.280,Visual Search Experiment,,2025.1.1,59.959191773962175,2025-10-01 18h55.57.285501 +0530,
174,0,174,[np.float64(-0.018055555555555554)],[np.float64(0.03333333333333333)],[1],[0],[0],[1.341384300001664],['Target'],174,0,174,0,315.32817959999375,,5,315.3057085000037,315.32817959999375,315.32817959999375,0.008215399997425266,316.6472322000045,[np.float64(-0.018055555555555554)],[np.float64(0.03333333333333333)],[1],[0],[0],[1.341384300001664],['Target'],ONE,001,2025-10-01_18h55.48.280,Visual Search Experiment,,2025.1.1,59.959191773962175,2025-10-01 18h55.57.285501 +0530,
175,0,175,[np.float64(0.3680555555555556)],[np.float64(0.2972222222222222)],[1],[0],[0],[1.224805899997591],['Target'],175,0,175,0,316.67792519999784,,5,316.6557746000035,316.67792519999784,316.67792519999784,0.008451399990008213,317.8807267999946,[np.float64(0.3680555555555556)],[np.float64(0.2972222222222222)],[1],[0],[0],[1.224805899997591],['Target'],ONE,001,2025-10-01_18h55.48.280,Visual Search Experiment,,2025.1.1,59.959191773962175,2025-10-01 18h55.57.285501 +0530,
176,0,176,[np.float64(0.17916666666666667)],[np.float64(-0.044444444444444446)],[1],[0],[0],[1.098562099999981],['Target'],176,0,176,0,317.9122289999941,,10,317.8989780999982,317.9122289999941,317.9122289999941,0.01812209999479819,318.99767489999067,[np.float64(0.17916666666666667)],[np.float64(-0.044444444444444446)],[1],[0],[0],[1.098562099999981],['Target'],ONE,001,2025-10-01_18h55.48.280,Visual Search Experiment,,2025.1.1,59.959191773962175,2025-10-01 18h55.57.285501 +0530,
177,0,177,[np.float64(-0.020833333333333332)],[np.float64(-0.35138888888888886)],[1],[0],[0],[1.6798033000086434],['Target'],177,0,177,0,319.0274627000035,,10,319.01667969999835,319.0274627000035,319.0274627000035,0.018800400008331053,320.6966198000009,[np.float64(-0.020833333333333332)],[np.float64(-0.35138888888888886)],[1],[0],[0],[1.6798033000086434],['Target'],ONE,001,2025-10-01_18h55.48.280,Visual Search Experiment,,2025.1.1,59.959191773962175,2025-10-01 18h55.57.285501 +0530,
178,0,178,[np.float64(-0.0625)],[np.float64(-0.14444444444444443)],[1],[0],[0],[1.1636561999912374],['Target'],178,0,178,0,320.7270595000009,,10,320.71524989999307,320.7270595000009,320.7270595000009,0.018515200004912913,321.8790391999937,[np.float64(-0.0625)],[np.float64(-0.14444444444444443)],[1],[0],[0],[1.1636561999912374],['Target'],ONE,001,2025-10-01_18h55.48.280,Visual Search Experiment,,2025.1.1,59.959191773962175,2025-10-01 18h55.57.285501 +0530,
179,0,179,[np.float64(0.13194444444444445)],[np.float64(-0.2847222222222222)],[1],[0],[0],[1.71643669999321],['Target'],179,0,179,0,321.9105666999967,,10,321.89607790000446,321.9105666999967,321.9105666999967,0.016917400003876537,323.6126421999943,[np.float64(0.13194444444444445)],[np.float64(-0.2847222222222222)],[1],[0],[0],[1.71643669999321],['Target'],ONE,001,2025-10-01_18h55.48.280,Visual Search Experiment,,2025.1.1,59.959191773962175,2025-10-01 18h55.57.285501 +0530,
180,0,180,[np.float64(0.22777777777777777)],[np.float64(-0.30277777777777776)],[1],[0],[0],[0.8181256999960169],['Target'],180,0,180,0,323.644650599992,,10,323.6291624000005,323.644650599992,323.644650599992,0.016421799999079667,324.44741720000457,[np.float64(0.22777777777777777)],[np.float64(-0.30277777777777776)],[1],[0],[0],[0.8181256999960169],['Target'],ONE,001,2025-10-01_18h55.48.280,Visual Search Experiment,,2025.1.1,59.959191773962175,2025-10-01 18h55.57.285501 +0530,
181,0,181,[np.float64(0.35833333333333334)],[np.float64(0.08194444444444444)],[1],[0],[0],[1.5483638000005158],['Target'],181,0,181,0,324.4772604000027,,10,324.46389980000095,324.4772604000027,324.4772604000027,0.016385500013711862,326.01239079999505,[np.float64(0.35833333333333334)],[np.float64(0.08194444444444444)],[1],[0],[0],[1.5483638000005158],['Target'],ONE,001,2025-10-01_18h55.48.280,Visual Search Experiment,,2025.1.1,59.959191773962175,2025-10-01 18h55.57.285501 +0530,
182,0,182,[np.float64(-0.25833333333333336)],[np.float64(-0.04861111111111111)],[1],[0],[0],[1.433662599985837],['Target'],182,0,182,0,326.04448460000276,,10,326.0296205999912,326.04448460000276,326.04448460000276,0.017130799998994917,327.46341749999556,[np.float64(-0.25833333333333336)],[np.float64(-0.04861111111111111)],[1],[0],[0],[1.433662599985837],['Target'],ONE,001,2025-10-01_18h55.48.280,Visual Search Experiment,,2025.1.1,59.959191773962175,2025-10-01 18h55.57.285501 +0530,
183,0,183,[np.float64(0.027777777777777776)],[np.float64(-0.12916666666666668)],[1],[0],[0],[2.56501949999074],['Target'],183,0,183,0,327.4933680999966,,10,327.4811924999958,327.4933680999966,327.4933680999966,0.017659499993897043,330.04634659999283,[np.float64(0.027777777777777776)],[np.float64(-0.12916666666666668)],[1],[0],[0],[2.56501949999074],['Target'],ONE,001,2025-10-01_18h55.48.280,Visual Search Experiment,,2025.1.1,59.959191773962175,2025-10-01 18h55.57.285501 +0530,
184,0,184,"[np.float64(-0.36944444444444446), np.float64(-0.3972222222222222)]","[np.float64(0.34444444444444444), np.float64(0.37222222222222223)]","[1, 1]","[0, 0]","[0, 0]","[2.230802899997798, 4.414258500008145]","[None, 'Target']",184,0,184,0,330.07690519999596,,10,330.0644470999978,330.07690519999596,330.07690519999596,0.017983400000957772,334.47884650000196,"[np.float64(-0.36944444444444446), np.float64(-0.3972222222222222)]","[np.float64(0.34444444444444444), np.float64(0.37222222222222223)]","[1, 1]","[0, 0]","[0, 0]","[2.230802899997798, 4.414258500008145]","[None, 'Target']",ONE,001,2025-10-01_18h55.48.280,Visual Search Experiment,,2025.1.1,59.959191773962175,2025-10-01 18h55.57.285501 +0530,
185,0,185,[np.float64(-0.4930555555555556)],[np.float64(-0.1)],[1],[0],[0],[1.632143000009819],['Target'],185,0,185,0,334.5098530999967,,10,334.4960243999958,334.5098530999967,334.5098530999967,0.017040300008375198,336.12832639999397,[np.float64(-0.4930555555555556)],[np.float64(-0.1)],[1],[0],[0],[1.632143000009819],['Target'],ONE,001,2025-10-01_18h55.48.280,Visual Search Experiment,,2025.1.1,59.959191773962175,2025-10-01 18h55.57.285501 +0530,
186,0,186,[np.float64(0.10416666666666667)],[np.float64(-0.43194444444444446)],[1],[0],[0],[1.2745050999947125],['Target'],186,0,186,0,336.1597494000016,,5,336.1369798999949,336.1597494000016,336.1597494000016,0.008554400003049523,337.4116323999915,[np.float64(0.10416666666666667)],[np.float64(-0.43194444444444446)],[1],[0],[0],[1.2745050999947125],['Target'],ONE,001,2025-10-01_18h55.48.280,Visual Search Experiment,,2025.1.1,59.959191773962175,2025-10-01 18h55.57.285501 +0530,
187,0,187,[np.float64(0.14305555555555555)],[np.float64(-0.175)],[1],[0],[0],[1.2140647999913199],['Target'],187,0,187,0,337.44259829999646,,10,337.43069199999445,337.44259829999646,337.44259829999646,0.018972000005305745,338.6449064000044,[np.float64(0.14305555555555555)],[np.float64(-0.175)],[1],[0],[0],[1.2140647999913199],['Target'],ONE,001,2025-10-01_18h55.48.280,Visual Search Experiment,,2025.1.1,59.959191773962175,2025-10-01 18h55.57.285501 +0530,
188,0,188,[np.float64(-0.22361111111111112)],[np.float64(-0.4736111111111111)],[1],[0],[0],[2.407409799998277],['Target'],188,0,188,0,338.67640989999927,,5,338.6541305999999,338.67640989999927,338.67640989999927,0.009122899995418265,341.06166399999347,[np.float64(-0.22361111111111112)],[np.float64(-0.4736111111111111)],[1],[0],[0],[2.407409799998277],['Target'],ONE,001,2025-10-01_18h55.48.280,Visual Search Experiment,,2025.1.1,59.959191773962175,2025-10-01 18h55.57.285501 +0530,
189,0,189,[np.float64(0.0875)],[np.float64(-0.15416666666666667)],[1],[0],[0],[1.2319043000024976],['Target'],189,0,189,0,341.09257769999385,,10,341.0789503999986,341.09257769999385,341.09257769999385,0.01720870001008734,342.31098439999914,[np.float64(0.0875)],[np.float64(-0.15416666666666667)],[1],[0],[0],[1.2319043000024976],['Target'],ONE,001,2025-10-01_18h55.48.280,Visual Search Experiment,,2025.1.1,59.959191773962175,2025-10-01 18h55.57.285501 +0530,
190,0,190,[np.float64(-0.13055555555555556)],[np.float64(-0.2361111111111111)],[1],[0],[0],[1.2485547000105726],['Target'],190,0,190,0,342.3431309000007,,10,342.3285671999911,342.3431309000007,342.3431309000007,0.01748589999624528,343.5772585999948,[np.float64(-0.13055555555555556)],[np.float64(-0.2361111111111111)],[1],[0],[0],[1.2485547000105726],['Target'],ONE,001,2025-10-01_18h55.48.280,Visual Search Experiment,,2025.1.1,59.959191773962175,2025-10-01 18h55.57.285501 +0530,
191,0,191,"[np.float64(-0.16666666666666666), np.float64(-0.1597222222222222)]","[np.float64(0.16805555555555557), np.float64(0.18611111111111112)]","[1, 1]","[0, 0]","[0, 0]","[1.3312308000022313, 1.9471234999946319]","[None, 'Target']",191,0,191,0,343.60830920000444,,10,343.5967582000012,343.60830920000444,343.60830920000444,0.0193825000023935,345.54401979999966,"[np.float64(-0.16666666666666666), np.float64(-0.1597222222222222)]","[np.float64(0.16805555555555557), np.float64(0.18611111111111112)]","[1, 1]","[0, 0]","[0, 0]","[1.3312308000022313, 1.9471234999946319]","[None, 'Target']",ONE,001,2025-10-01_18h55.48.280,Visual Search Experiment,,2025.1.1,59.959191773962175,2025-10-01 18h55.57.285501 +0530,
192,0,192,"[np.float64(0.15694444444444444), np.float64(0.11805555555555555), np.float64(0.1125), np.float64(0.12777777777777777)]","[np.float64(0.4388888888888889), np.float64(0.4388888888888889), np.float64(0.45555555555555555), np.float64(0.4513888888888889)]","[1, 1, 1, 1]","[0, 0, 0, 0]","[0, 0, 0, 0]","[1.2735152000095695, 1.7569966000010027, 2.423595900007058, 2.990750199998729]","[None, None, None, 'Target']",192,0,192,0,345.57552399999986,,5,345.553361600003,345.57552399999986,345.57552399999986,0.009216500009642914,348.54424049999216,"[np.float64(0.15694444444444444), np.float64(0.11805555555555555), np.float64(0.1125), np.float64(0.12777777777777777)]","[np.float64(0.4388888888888889), np.float64(0.4388888888888889), np.float64(0.45555555555555555), np.float64(0.4513888888888889)]","[1, 1, 1, 1]","[0, 0, 0, 0]","[0, 0, 0, 0]","[1.2735152000095695, 1.7569966000010027, 2.423595900007058, 2.990750199998729]","[None, None, None, 'Target']",ONE,001,2025-10-01_18h55.48.280,Visual Search Experiment,,2025.1.1,59.959191773962175,2025-10-01 18h55.57.285501 +0530,
193,0,193,"[np.float64(0.2652777777777778), np.float64(0.2763888888888889)]","[np.float64(0.30833333333333335), np.float64(0.30694444444444446)]","[1, 1]","[0, 0]","[0, 0]","[0.9072594999888679, 1.5235579000000143]","[None, 'Target']",193,0,193,0,348.57569240000157,,5,348.5534418000025,348.57569240000157,348.57569240000157,0.009065599995665252,350.07713449999574,"[np.float64(0.2652777777777778), np.float64(0.2763888888888889)]","[np.float64(0.30833333333333335), np.float64(0.30694444444444446)]","[1, 1]","[0, 0]","[0, 0]","[0.9072594999888679, 1.5235579000000143]","[None, 'Target']",ONE,001,2025-10-01_18h55.48.280,Visual Search Experiment,,2025.1.1,59.959191773962175,2025-10-01 18h55.57.285501 +0530,
194,0,194,"[np.float64(-0.45416666666666666), np.float64(-0.475)]","[np.float64(0.13194444444444445), np.float64(0.12083333333333333)]","[1, 1]","[0, 0]","[0, 0]","[1.4886389000021154, 2.2221905999904266]","[None, 'Target']",194,0,194,0,350.10814309999114,,5,350.0872765999957,350.10814309999114,350.10814309999114,0.010030100005678833,352.30961260000186,"[np.float64(-0.45416666666666666), np.float64(-0.475)]","[np.float64(0.13194444444444445), np.float64(0.12083333333333333)]","[1, 1]","[0, 0]","[0, 0]","[1.4886389000021154, 2.2221905999904266]","[None, 'Target']",ONE,001,2025-10-01_18h55.48.280,Visual Search Experiment,,2025.1.1,59.959191773962175,2025-10-01 18h55.57.285501 +0530,
195,0,195,"[np.float64(-0.3958333333333333), np.float64(-0.3611111111111111)]","[np.float64(0.45), np.float64(0.4638888888888889)]","[1, 1]","[0, 0]","[0, 0]","[2.0122521000012057, 2.564444399991771]","[None, 'Target']",195,0,195,0,352.3404909999954,,10,352.3303997000039,352.3404909999954,352.3404909999954,0.02065799999400042,354.8949816999957,"[np.float64(-0.3958333333333333), np.float64(-0.3611111111111111)]","[np.float64(0.45), np.float64(0.4638888888888889)]","[1, 1]","[0, 0]","[0, 0]","[2.0122521000012057, 2.564444399991771]","[None, 'Target']",ONE,001,2025-10-01_18h55.48.280,Visual Search Experiment,,2025.1.1,59.959191773962175,2025-10-01 18h55.57.285501 +0530,
