reward_today,future_reward,delay,thisN,thisTrialN,thisRepN,key_resp.keys,key_resp.rt,key_resp.duration,trials.thisRepN,trials.thisTrialN,trials.thisN,trials.thisIndex,thisRow.t,notes,trial.started,fixation.started,text.started,key_resp.started,fixation.stopped,trial.stopped,trials.key_resp.keys,trials.key_resp.rt,trials.key_resp.duration,participant,session,date,expName,expVersion,psychopyVersion,frameRate,expStart,
18,32,9,0,0,0,t,4.446055700012948,None,0,0,0,8,0.3105699000007007,,0.2947109999950044,0.3105699000007007,1.0105919000052381,1.0105919000052381,1.310873599984916,5.605154899996705,t,4.446055700012948,None,Participant_03,001,2025-11-06_06h44.42.889,Delay Discounting,,2025.1.1,59.67256470706041,2025-11-06 06h44.57.593018 +0530,
62,86,90,1,1,0,l,0.07069629998295568,None,0,1,1,25,5.626903500000481,,5.613615799986292,5.626903500000481,6.609960100002354,6.609960100002354,6.62746600000537,6.6946484000072815,l,0.07069629998295568,None,Participant_03,001,2025-11-06_06h44.42.889,Delay Discounting,,2025.1.1,59.67256470706041,2025-11-06 06h44.57.593018 +0530,
54,110,25,2,2,0,l,0.12862040000618435,None,0,2,2,67,6.709779199998593,,6.702790399984224,6.709779199998593,7.710043500002939,7.710043500002939,7.710043500002939,7.8438862999901175,l,0.12862040000618435,None,Participant_03,001,2025-11-06_06h44.42.889,Delay Discounting,,2025.1.1,59.67256470706041,2025-11-06 06h44.57.593018 +0530,
62,130,29,3,3,0,l,0.18204980000155047,None,0,3,3,71,7.860229599988088,,7.847990799986292,7.860229599988088,8.843501299998024,8.843501299998024,8.86026519999723,9.027321900008246,l,0.18204980000155047,None,Participant_03,001,2025-11-06_06h44.42.889,Delay Discounting,,2025.1.1,59.67256470706041,2025-11-06 06h44.57.593018 +0530,
11,30,7,4,4,0,t,0.12998920000973158,None,0,4,4,0,9.043307499989169,,9.033442799991462,9.043307499989169,10.027106299996376,10.027106299996376,10.044565199990757,10.162031499989098,t,0.12998920000973158,None,Participant_03,001,2025-11-06_06h44.42.889,Delay Discounting,,2025.1.1,59.67256470706041,2025-11-06 06h44.57.593018 +0530,
98,155,180,5,5,0,l,0.028758500004187226,None,0,5,5,43,10.17799450000166,,10.166993799997726,10.17799450000166,11.176587399997516,11.176587399997516,11.19295389999752,11.210105899983319,l,0.028758500004187226,None,Participant_03,001,2025-11-06_06h44.42.889,Delay Discounting,,2025.1.1,59.67256470706041,2025-11-06 06h44.57.593018 +0530,
78,105,130,6,6,0,l,0.15585829998599365,None,0,6,6,33,11.226238600007491,,11.212840399995912,11.226238600007491,12.209321500005899,12.209321500005899,12.226145099994028,12.376725999987684,l,0.15585829998599365,None,Participant_03,001,2025-11-06_06h44.42.889,Delay Discounting,,2025.1.1,59.67256470706041,2025-11-06 06h44.57.593018 +0530,
92,140,165,7,7,0,t,0.08500240001012571,None,0,7,7,40,12.394021699990844,,12.37998189998325,12.394021699990844,13.375963400001638,13.375963400001638,13.40925860000425,13.476694399985718,t,0.08500240001012571,None,Participant_03,001,2025-11-06_06h44.42.889,Delay Discounting,,2025.1.1,59.67256470706041,2025-11-06 06h44.57.593018 +0530,
100,225,48,8,8,0,t,0.02316939999582246,None,0,8,8,90,13.492787399998633,,13.47981129999971,13.492787399998633,14.477860099985264,14.477860099985264,14.494461399997817,14.51107479998609,t,0.02316939999582246,None,Participant_03,001,2025-11-06_06h44.42.889,Delay Discounting,,2025.1.1,59.67256470706041,2025-11-06 06h44.57.593018 +0530,
80,110,135,9,9,0,l,0.08829720001085661,None,0,9,9,34,14.526075000001583,,14.514634499995736,14.526075000001583,15.509565899992594,15.509565899992594,15.525900499982527,15.609723700006725,l,0.08829720001085661,None,Participant_03,001,2025-11-06_06h44.42.889,Delay Discounting,,2025.1.1,59.67256470706041,2025-11-06 06h44.57.593018 +0530,
94,210,45,10,10,0,l,0.15353670000331476,None,0,10,10,87,15.62637949999771,,15.61272820000886,15.62637949999771,16.609119600005215,16.609119600005215,16.625869099982083,16.776003300008597,l,0.15353670000331476,None,Participant_03,001,2025-11-06_06h44.42.889,Delay Discounting,,2025.1.1,59.67256470706041,2025-11-06 06h44.57.593018 +0530,
66,90,100,11,11,0,l,0.1944118000101298,None,0,11,11,27,16.79213479999453,,16.779207699990366,16.79213479999453,17.77575249999063,17.77575249999063,17.792590400000336,17.976210799999535,l,0.1944118000101298,None,Participant_03,001,2025-11-06_06h44.42.889,Delay Discounting,,2025.1.1,59.67256470706041,2025-11-06 06h44.57.593018 +0530,
12,24,4,12,12,0,l,0.04088980000233278,None,0,12,12,46,17.99222389998613,,17.978923599992413,17.99222389998613,18.975603200000478,18.975603200000478,18.992436100001214,19.027050300006522,l,0.04088980000233278,None,Participant_03,001,2025-11-06_06h44.42.889,Delay Discounting,,2025.1.1,59.67256470706041,2025-11-06 06h44.57.593018 +0530,
47,74,60,13,13,0,l,0.17505789999268018,None,0,13,13,19,19.042473899986362,,19.03194899999653,19.042473899986362,20.04197269998258,20.04197269998258,20.04197269998258,20.22595469999942,l,0.17505789999268018,None,Participant_03,001,2025-11-06_06h44.42.889,Delay Discounting,,2025.1.1,59.67256470706041,2025-11-06 06h44.57.593018 +0530,
86,190,41,14,14,0,l,0.0014312000130303204,None,0,14,14,83,20.242581600003177,,20.2283652999904,20.242581600003177,21.225239199993666,21.225239199993666,21.242060499993386,21.242550499999197,l,0.0014312000130303204,None,Participant_03,001,2025-11-06_06h44.42.889,Delay Discounting,,2025.1.1,59.67256470706041,2025-11-06 06h44.57.593018 +0530,
60,84,85,15,15,0,l,0.04532689999905415,None,0,15,15,24,21.259025699982885,,21.245711499999743,21.259025699982885,22.24202969999169,22.24202969999169,22.258982500003185,22.292884700000286,l,0.04532689999905415,None,Participant_03,001,2025-11-06_06h44.42.889,Delay Discounting,,2025.1.1,59.67256470706041,2025-11-06 06h44.57.593018 +0530,
68,92,105,16,16,0,t,0.11785539999254979,None,0,16,16,28,22.30850799998734,,22.297351999994135,22.30850799998734,23.30837650000467,23.30837650000467,23.30837650000467,23.442658599989954,t,0.11785539999254979,None,Participant_03,001,2025-11-06_06h44.42.889,Delay Discounting,,2025.1.1,59.67256470706041,2025-11-06 06h44.57.593018 +0530,
10,20,3,17,17,0,t,0.17849600000772625,None,0,17,17,45,23.45872180000879,,23.445427600003313,23.45872180000879,24.44158419998712,24.44158419998712,24.45844399998896,24.62535869999556,t,0.17849600000772625,None,Participant_03,001,2025-11-06_06h44.42.889,Delay Discounting,,2025.1.1,59.67256470706041,2025-11-06 06h44.57.593018 +0530,
80,175,38,18,18,0,t,0.02914300002157688,None,0,18,18,80,24.641511199995875,,24.628287100000307,24.641511199995875,25.624694199999794,25.624694199999794,25.64165440000943,25.65878789999988,t,0.02914300002157688,None,Participant_03,001,2025-11-06_06h44.42.889,Delay Discounting,,2025.1.1,59.67256470706041,2025-11-06 06h44.57.593018 +0530,
24,48,10,19,19,0,l,0.06815249999635853,None,0,19,19,52,25.67517269999371,,25.66172760000336,25.67517269999371,26.658109299984062,26.658109299984062,26.67677679998451,26.74314959999174,l,0.06815249999635853,None,Participant_03,001,2025-11-06_06h44.42.889,Delay Discounting,,2025.1.1,59.67256470706041,2025-11-06 06h44.57.593018 +0530,
100,160,185,20,20,0,l,0.020845100021688268,None,0,20,20,44,26.758288199984236,,26.747430099989288,26.758288199984236,27.758029899996473,27.758029899996473,27.758029899996473,27.792259999987436,l,0.020845100021688268,None,Participant_03,001,2025-11-06_06h44.42.889,Delay Discounting,,2025.1.1,59.67256470706041,2025-11-06 06h44.57.593018 +0530,
22,44,9,21,21,0,l,0.22855349999736063,None,0,21,21,51,27.80824620000203,,27.795382499985863,27.80824620000203,28.808156999992207,28.808156999992207,28.808156999992207,29.04202369999257,l,0.22855349999736063,None,Participant_03,001,2025-11-06_06h44.42.889,Delay Discounting,,2025.1.1,59.67256470706041,2025-11-06 06h44.57.593018 +0530,
84,185,40,22,22,0,t,0.04339889998664148,None,0,22,22,82,29.057952800008934,,29.045324899983825,29.057952800008934,30.043307899992215,30.043307899992215,30.05865829999675,30.091445800004294,t,0.04339889998664148,None,Participant_03,001,2025-11-06_06h44.42.889,Delay Discounting,,2025.1.1,59.67256470706041,2025-11-06 06h44.57.593018 +0530,
104,235,50,23,23,0,t,0.1403623000078369,None,0,23,23,92,30.107934500003466,,30.094971399987116,30.107934500003466,31.091094400006114,31.091094400006114,31.107759300008183,31.241500600008294,t,0.1403623000078369,None,Participant_03,001,2025-11-06_06h44.42.889,Delay Discounting,,2025.1.1,59.67256470706041,2025-11-06 06h44.57.593018 +0530,
42,84,19,24,24,0,l,0.18669919998501427,None,0,24,24,61,31.257708299992373,,31.245063299982576,31.257708299992373,32.24094660000992,32.24094660000992,32.25773499999195,32.44212769999285,l,0.18669919998501427,None,Participant_03,001,2025-11-06_06h44.42.889,Delay Discounting,,2025.1.1,59.67256470706041,2025-11-06 06h44.57.593018 +0530,
90,200,43,25,25,0,l,0.004751899978145957,None,0,25,25,85,32.4579267000081,,32.44610500000999,32.4579267000081,33.457443699997384,33.457443699997384,33.457443699997384,33.47503790000337,l,0.004751899978145957,None,Participant_03,001,2025-11-06_06h44.42.889,Delay Discounting,,2025.1.1,59.67256470706041,2025-11-06 06h44.57.593018 +0530,
25,45,16,26,26,0,l,0.2320045999949798,None,0,26,26,10,33.490976400004,,33.478481099999044,33.490976400004,34.4908768000023,34.4908768000023,34.4908768000023,34.72467709999182,l,0.2320045999949798,None,Participant_03,001,2025-11-06_06h44.42.889,Delay Discounting,,2025.1.1,59.67256470706041,2025-11-06 06h44.57.593018 +0530,
60,125,28,27,27,0,l,0.043155199993634596,None,0,27,27,70,34.7409983999969,,34.72770359998685,34.7409983999969,35.72448479998275,35.72448479998275,35.740597199997865,35.7740216999955,l,0.043155199993634596,None,Participant_03,001,2025-11-06_06h44.42.889,Delay Discounting,,2025.1.1,59.67256470706041,2025-11-06 06h44.57.593018 +0530,
50,76,65,28,28,0,t,0.20957169999019243,None,0,28,28,20,35.790368199988734,,35.77717620000476,35.790368199988734,36.77369719999842,36.77369719999842,36.79046279998147,36.99086019999231,t,0.20957169999019243,None,Participant_03,001,2025-11-06_06h44.42.889,Delay Discounting,,2025.1.1,59.67256470706041,2025-11-06 06h44.57.593018 +0530,
15,35,13,29,29,0,t,0.0026058999937959015,None,0,29,29,1,37.00701800000388,,36.99471520000952,37.00701800000388,37.99060819999431,37.99060819999431,38.007150899997214,38.007717200001935,t,0.0026058999937959015,None,Participant_03,001,2025-11-06_06h44.42.889,Delay Discounting,,2025.1.1,59.67256470706041,2025-11-06 06h44.57.593018 +0530,
49,60,89,30,30,0,l,0.007164300011936575,None,0,30,30,4,38.02387549998821,,38.01028220000444,38.02387549998821,39.00719099998241,39.00719099998241,39.023799699993106,39.024554100004025,l,0.007164300011936575,None,Participant_03,001,2025-11-06_06h44.42.889,Delay Discounting,,2025.1.1,59.67256470706041,2025-11-06 06h44.57.593018 +0530,
26,52,11,31,31,0,l,0.2757286000123713,None,0,31,31,53,39.040123599988874,,39.02774429999408,39.040123599988874,40.023811399994884,40.023811399994884,40.04039459998603,40.3076882000023,l,0.2757286000123713,None,Participant_03,001,2025-11-06_06h44.42.889,Delay Discounting,,2025.1.1,59.67256470706041,2025-11-06 06h44.57.593018 +0530,
40,55,62,32,32,0,t,0.0013190000026952475,None,0,32,32,3,40.32347979999031,,40.310957999987295,40.32347979999031,41.30811519999406,41.30811519999406,41.32480569998734,41.32554900000105,t,0.0013190000026952475,None,Participant_03,001,2025-11-06_06h44.42.889,Delay Discounting,,2025.1.1,59.67256470706041,2025-11-06 06h44.57.593018 +0530,
94,145,170,33,33,0,t,0.021005799993872643,None,0,33,33,41,41.34159060000093,,41.33174560000771,41.34159060000093,42.34132109998609,42.34132109998609,42.34132109998609,42.37475160000031,t,0.021005799993872643,None,Participant_03,001,2025-11-06_06h44.42.889,Delay Discounting,,2025.1.1,59.67256470706041,2025-11-06 06h44.57.593018 +0530,
36,72,16,34,34,0,l,0.32283859999733977,None,0,34,34,58,42.39047819998814,,42.37857500000973,42.39047819998814,43.391212599992286,43.391212599992286,43.391212599992286,43.723469699994894,l,0.32283859999733977,None,Participant_03,001,2025-11-06_06h44.42.889,Delay Discounting,,2025.1.1,59.67256470706041,2025-11-06 06h44.57.593018 +0530,
28,56,12,35,35,0,l,0.05047049999120645,None,0,35,35,54,43.73996189999161,,43.72754469999927,43.73996189999161,44.723093999986304,44.723093999986304,44.73981500000809,44.79055800000788,l,0.05047049999120645,None,Participant_03,001,2025-11-06_06h44.42.889,Delay Discounting,,2025.1.1,59.67256470706041,2025-11-06 06h44.57.593018 +0530,
78,80,162,36,36,0,l,0.2105065000068862,None,0,36,36,6,44.80648130000918,,44.793294400005834,44.80648130000918,45.80621290000272,45.80621290000272,45.80621290000272,46.02329019998433,l,0.2105065000068862,None,Participant_03,001,2025-11-06_06h44.42.889,Delay Discounting,,2025.1.1,59.67256470706041,2025-11-06 06h44.57.593018 +0530,
64,88,95,37,37,0,t,0.07574870000826195,None,0,37,37,26,46.039545499981614,,46.02673809998669,46.039545499981614,47.022620900010224,47.022620900010224,47.039285100006964,47.106828599993605,t,0.07574870000826195,None,Participant_03,001,2025-11-06_06h44.42.889,Delay Discounting,,2025.1.1,59.67256470706041,2025-11-06 06h44.57.593018 +0530,
76,165,36,38,38,0,l,0.13649909998639487,None,0,38,38,78,47.122630700003356,,47.11137800000142,47.122630700003356,48.105953999998746,48.105953999998746,48.12258729999303,48.256410400004825,l,0.13649909998639487,None,Participant_03,001,2025-11-06_06h44.42.889,Delay Discounting,,2025.1.1,59.67256470706041,2025-11-06 06h44.57.593018 +0530,
39,68,45,39,39,0,l,6.289998418651521e-05,None,0,39,39,16,48.27267559999018,,48.26015180000104,48.27267559999018,49.25576159998309,49.25576159998309,49.27243219999946,49.25629799999297,l,6.289998418651521e-05,None,Participant_03,001,2025-11-06_06h44.42.889,Delay Discounting,,2025.1.1,59.67256470706041,2025-11-06 06h44.57.593018 +0530,
27,50,21,40,40,0,t,0.0499683000089135,None,0,40,40,2,49.27243219999946,,49.259625000006054,49.27243219999946,50.25586239999393,50.25586239999393,50.27250110000023,50.30729940001038,t,0.0499683000089135,None,Participant_03,001,2025-11-06_06h44.42.889,Delay Discounting,,2025.1.1,59.67256470706041,2025-11-06 06h44.57.593018 +0530,
110,250,53,41,41,0,t,0.09345379998558201,None,0,41,41,95,50.322735900001135,,50.31042299998808,50.322735900001135,51.32234710000921,51.32234710000921,51.32234710000921,51.42280689999461,t,0.09345379998558201,None,Participant_03,001,2025-11-06_06h44.42.889,Delay Discounting,,2025.1.1,59.67256470706041,2025-11-06 06h44.57.593018 +0530,
34,68,15,42,42,0,t,0.04797479999251664,None,0,42,42,57,51.43922319999547,,51.42566189999343,51.43922319999547,52.42222179999226,52.42222179999226,52.43886669998756,52.47262670000782,t,0.04797479999251664,None,Participant_03,001,2025-11-06_06h44.42.889,Delay Discounting,,2025.1.1,59.67256470706041,2025-11-06 06h44.57.593018 +0530,
88,130,155,43,43,0,l,0.09517970000160858,None,0,43,43,38,52.489135599986184,,52.47509140000329,52.489135599986184,53.47221370000625,53.47221370000625,53.488838999997824,53.57282820000546,l,0.09517970000160858,None,Participant_03,001,2025-11-06_06h44.42.889,Delay Discounting,,2025.1.1,59.67256470706041,2025-11-06 06h44.57.593018 +0530,
74,98,120,44,44,0,t,0.05031390002113767,None,0,44,44,31,53.588939000008395,,53.575414699997054,53.588939000008395,54.57247789998655,54.57247789998655,54.589192599989474,54.6397341999982,t,0.05031390002113767,None,Participant_03,001,2025-11-06_06h44.42.889,Delay Discounting,,2025.1.1,59.67256470706041,2025-11-06 06h44.57.593018 +0530,
58,120,27,45,45,0,l,0.0977320000238251,None,0,45,45,69,54.65558289998444,,54.64361289999215,54.65558289998444,55.65515730000334,55.65515730000334,55.65515730000334,55.75567919999594,l,0.0977320000238251,None,Participant_03,001,2025-11-06_06h44.42.889,Delay Discounting,,2025.1.1,59.67256470706041,2025-11-06 06h44.57.593018 +0530,
90,135,160,46,46,0,l,0.20290959998965263,None,0,46,46,39,55.772308999992674,,55.758762499986915,55.772308999992674,56.75497750000795,56.75497750000795,56.77172459999565,56.97225809999509,l,0.20290959998965263,None,Participant_03,001,2025-11-06_06h44.42.889,Delay Discounting,,2025.1.1,59.67256470706041,2025-11-06 06h44.57.593018 +0530,
42,70,50,47,47,0,l,0.09684319997904822,None,0,47,47,17,56.98835749999853,,56.97596300000441,56.98835749999853,57.9731053999858,57.9731053999858,57.98870230000466,58.07307349998155,l,0.09684319997904822,None,Participant_03,001,2025-11-06_06h44.42.889,Delay Discounting,,2025.1.1,59.67256470706041,2025-11-06 06h44.57.593018 +0530,
70,94,110,48,48,0,l,0.3018027000071015,None,0,48,48,29,58.08897899999283,,58.0763666999992,58.08897899999283,59.07326179998927,59.07326179998927,59.08972099999664,59.38870660000248,l,0.3018027000071015,None,Participant_03,001,2025-11-06_06h44.42.889,Delay Discounting,,2025.1.1,59.67256470706041,2025-11-06 06h44.57.593018 +0530,
118,270,57,49,49,0,l,0.08173810000880621,None,0,49,49,99,59.40491429998656,,59.391740299994126,59.40491429998656,60.38806659998954,60.38806659998954,60.404563399992185,60.47206110000843,l,0.08173810000880621,None,Participant_03,001,2025-11-06_06h44.42.889,Delay Discounting,,2025.1.1,59.67256470706041,2025-11-06 06h44.57.593018 +0530,
30,52,25,50,50,0,t,0.04092629998922348,None,0,50,50,12,60.48814420000417,,60.47609700000612,60.48814420000417,61.47117020000587,61.47117020000587,61.487725699989824,61.5219236999983,t,0.04092629998922348,None,Participant_03,001,2025-11-06_06h44.42.889,Delay Discounting,,2025.1.1,59.67256470706041,2025-11-06 06h44.57.593018 +0530,
16,32,6,51,51,0,l,0.013903599989134818,None,0,51,51,48,61.53843919999781,,61.52589759998955,61.53843919999781,62.52132199998596,62.52132199998596,62.53778409998631,62.53820949999499,l,0.013903599989134818,None,Participant_03,001,2025-11-06_06h44.42.889,Delay Discounting,,2025.1.1,59.67256470706041,2025-11-06 06h44.57.593018 +0530,
46,92,21,52,52,0,t,0.06988940000883304,None,0,52,52,63,62.55452219999279,,62.541763199988054,62.55452219999279,63.53774880000856,63.53774880000856,63.554423199995654,63.62153330000001,t,0.06988940000883304,None,Participant_03,001,2025-11-06_06h44.42.889,Delay Discounting,,2025.1.1,59.67256470706041,2025-11-06 06h44.57.593018 +0530,
84,120,145,53,53,0,t,0.1784862000204157,None,0,53,53,36,63.63764080000692,,63.62567479998688,63.63764080000692,64.6210132999986,64.6210132999986,64.63783059999696,64.80453120000311,t,0.1784862000204157,None,Participant_03,001,2025-11-06_06h44.42.889,Delay Discounting,,2025.1.1,59.67256470706041,2025-11-06 06h44.57.593018 +0530,
44,88,20,54,54,0,t,0.03478909999830648,None,0,54,54,62,64.82089309999719,,64.80811829998856,64.82089309999719,65.80408790000365,65.80408790000365,65.82070260000182,65.85464040000807,t,0.03478909999830648,None,Participant_03,001,2025-11-06_06h44.42.889,Delay Discounting,,2025.1.1,59.67256470706041,2025-11-06 06h44.57.593018 +0530,
52,105,24,55,55,0,t,0.03822700001182966,None,0,55,55,66,65.87061569999787,,65.85822580000968,65.87061569999787,66.85444840000127,66.85444840000127,66.8710940000019,66.90472970000701,t,0.03822700001182966,None,Participant_03,001,2025-11-06_06h44.42.889,Delay Discounting,,2025.1.1,59.67256470706041,2025-11-06 06h44.57.593018 +0530,
18,36,7,56,56,0,t,0.06478159999824129,None,0,56,56,49,66.92053440000745,,66.90795470000012,66.92053440000745,67.90392929999507,67.90392929999507,67.92073149999487,67.97153139999136,t,0.06478159999824129,None,Participant_03,001,2025-11-06_06h44.42.889,Delay Discounting,,2025.1.1,59.67256470706041,2025-11-06 06h44.57.593018 +0530,
72,96,115,57,57,0,l,0.0922067999781575,None,0,57,57,30,67.98764949999168,,67.97569880000083,67.98764949999168,68.9873580999847,68.9873580999847,68.9873580999847,69.08767959999386,l,0.0922067999781575,None,Participant_03,001,2025-11-06_06h44.42.889,Delay Discounting,,2025.1.1,59.67256470706041,2025-11-06 06h44.57.593018 +0530,
98,220,47,58,58,0,l,0.06875829998170957,None,0,58,58,89,69.10392779999529,,69.09099830000196,69.10392779999529,70.08695799999987,70.08695799999987,70.10364049999043,70.17094109999016,l,0.06875829998170957,None,Participant_03,001,2025-11-06_06h44.42.889,Delay Discounting,,2025.1.1,59.67256470706041,2025-11-06 06h44.57.593018 +0530,
96,215,46,59,59,0,l,0.004449500003829598,None,0,59,59,88,70.18698609998683,,70.174199400004,70.18698609998683,71.17089889998897,71.17089889998897,71.18749310000567,71.18798139999853,l,0.004449500003829598,None,Participant_03,001,2025-11-06_06h44.42.889,Delay Discounting,,2025.1.1,59.67256470706041,2025-11-06 06h44.57.593018 +0530,
14,28,5,60,60,0,l,0.08326189999934286,None,0,60,60,47,71.2047762000002,,71.1927255000046,71.2047762000002,72.20350020000478,72.20350020000478,72.20350020000478,72.28734280000208,l,0.08326189999934286,None,Participant_03,001,2025-11-06_06h44.42.889,Delay Discounting,,2025.1.1,59.67256470706041,2025-11-06 06h44.57.593018 +0530,
68,145,32,61,61,0,l,0.20337259999359958,None,0,61,61,74,72.30350849998649,,72.29033160000108,72.30350849998649,73.28679660000489,73.28679660000489,73.3033291999891,73.5039962999872,l,0.20337259999359958,None,Participant_03,001,2025-11-06_06h44.42.889,Delay Discounting,,2025.1.1,59.67256470706041,2025-11-06 06h44.57.593018 +0530,
30,60,13,62,62,0,t,0.320751699997345,None,0,62,62,55,73.51991730000009,,73.50710459999391,73.51991730000009,74.50346790000913,74.50346790000913,74.5199689999863,74.8373270999873,t,0.320751699997345,None,Participant_03,001,2025-11-06_06h44.42.889,Delay Discounting,,2025.1.1,59.67256470706041,2025-11-06 06h44.57.593018 +0530,
64,135,30,63,63,0,t,0.21631519999937154,None,0,63,63,72,74.8532881999854,,74.83978650000063,74.8532881999854,75.83689489998505,75.83689489998505,75.8539225999848,76.0538530999911,t,0.21631519999937154,None,Participant_03,001,2025-11-06_06h44.42.889,Delay Discounting,,2025.1.1,59.67256470706041,2025-11-06 06h44.57.593018 +0530,
66,140,31,64,64,0,t,0.10680459998548031,None,0,64,64,73,76.07020859999466,,76.05678710000939,76.07020859999466,77.05453130000387,77.05453130000387,77.07121059999918,77.17240079998737,t,0.10680459998548031,None,Participant_03,001,2025-11-06_06h44.42.889,Delay Discounting,,2025.1.1,59.67256470706041,2025-11-06 06h44.57.593018 +0530,
20,38,12,65,65,0,t,0.03372430001036264,None,0,65,65,9,77.20493780000834,,77.18301790000987,77.20493780000834,78.18645069998456,78.18645069998456,78.22022519999882,78.22082660000888,t,0.03372430001036264,None,Participant_03,001,2025-11-06_06h44.42.889,Delay Discounting,,2025.1.1,59.67256470706041,2025-11-06 06h44.57.593018 +0530,
106,240,51,66,66,0,l,0.047491999983321875,None,0,66,66,93,78.23617709998507,,78.22370879998198,78.23617709998507,79.23608299999614,79.23608299999614,79.23608299999614,79.28680440000608,l,0.047491999983321875,None,Participant_03,001,2025-11-06_06h44.42.889,Delay Discounting,,2025.1.1,59.67256470706041,2025-11-06 06h44.57.593018 +0530,
96,150,175,67,67,0,l,0.1711102000263054,None,0,67,67,42,79.30272199999308,,79.2896678999823,79.30272199999308,80.28599370000302,80.28599370000302,80.30278910000925,80.4709554000001,l,0.1711102000263054,None,Participant_03,001,2025-11-06_06h44.42.889,Delay Discounting,,2025.1.1,59.67256470706041,2025-11-06 06h44.57.593018 +0530,
72,155,34,68,68,0,t,0.327496699988842,None,0,68,68,76,80.48779339998146,,80.47580349998316,80.48779339998146,81.48579750000499,81.48579750000499,81.50271259999136,81.82128070000908,t,0.327496699988842,None,Participant_03,001,2025-11-06_06h44.42.889,Delay Discounting,,2025.1.1,59.67256470706041,2025-11-06 06h44.57.593018 +0530,
78,170,37,69,69,0,t,0.07501170001341961,None,0,69,69,79,81.83742269998766,,81.82673169998452,81.83742269998766,82.83603249999578,82.83603249999578,82.85296699998435,82.92065660000662,t,0.07501170001341961,None,Participant_03,001,2025-11-06_06h44.42.889,Delay Discounting,,2025.1.1,59.67256470706041,2025-11-06 06h44.57.593018 +0530,
58,82,80,70,70,0,t,0.12179710000054911,None,0,70,70,23,82.93670289998408,,82.92491199998767,82.93670289998408,83.93603300000541,83.93603300000541,83.93603300000541,84.07029579998925,t,0.12179710000054911,None,Participant_03,001,2025-11-06_06h44.42.889,Delay Discounting,,2025.1.1,59.67256470706041,2025-11-06 06h44.57.593018 +0530,
12,25,5,71,71,0,l,0.06913540000095963,None,0,71,71,7,84.08615389998886,,84.07308609999018,84.08615389998886,85.07077749999007,85.07077749999007,85.08795280000777,85.15492359999917,l,0.06913540000095963,None,Participant_03,001,2025-11-06_06h44.42.889,Delay Discounting,,2025.1.1,59.67256470706041,2025-11-06 06h44.57.593018 +0530,
35,60,35,72,72,0,t,0.00719470001058653,None,0,72,72,14,85.18748520000372,,85.16069479999715,85.18748520000372,86.15402709998307,86.15402709998307,86.18737539998256,86.17115399998147,t,0.00719470001058653,None,Participant_03,001,2025-11-06_06h44.42.889,Delay Discounting,,2025.1.1,59.67256470706041,2025-11-06 06h44.57.593018 +0530,
50,100,23,73,73,0,t,0.03951740000047721,None,0,73,73,65,86.18737539998256,,86.17640769999707,86.18737539998256,87.18682259999332,87.18682259999332,87.18682259999332,87.2360606000002,t,0.03951740000047721,None,Participant_03,001,2025-11-06_06h44.42.889,Delay Discounting,,2025.1.1,59.67256470706041,2025-11-06 06h44.57.593018 +0530,
82,115,140,74,74,0,l,0.02682009999989532,None,0,74,74,35,87.25203269999474,,87.24066589999711,87.25203269999474,88.23702010000125,88.23702010000125,88.25355520000448,88.27087360000587,l,0.02682009999989532,None,Participant_03,001,2025-11-06_06h44.42.889,Delay Discounting,,2025.1.1,59.67256470706041,2025-11-06 06h44.57.593018 +0530,
56,115,26,75,75,0,l,0.14478029997553676,None,0,75,75,68,88.28680569998687,,88.27485819999129,88.28680569998687,89.28697809998994,89.28697809998994,89.28697809998994,89.43560860000434,l,0.14478029997553676,None,Participant_03,001,2025-11-06_06h44.42.889,Delay Discounting,,2025.1.1,59.67256470706041,2025-11-06 06h44.57.593018 +0530,
32,64,14,76,76,0,t,0.05310560000361875,None,0,76,76,56,89.45179329998791,,89.43919539998751,89.45179329998791,90.43484669999452,90.43484669999452,90.45267659999081,90.50247639999725,t,0.05310560000361875,None,Participant_03,001,2025-11-06_06h44.42.889,Delay Discounting,,2025.1.1,59.67256470706041,2025-11-06 06h44.57.593018 +0530,
86,125,150,77,77,0,l,0.04857040001661517,None,0,77,77,37,90.51857099999324,,90.50500859998283,90.51857099999324,91.50309909999487,91.50309909999487,91.51985389998299,91.55348579998827,l,0.04857040001661517,None,Participant_03,001,2025-11-06_06h44.42.889,Delay Discounting,,2025.1.1,59.67256470706041,2025-11-06 06h44.57.593018 +0530,
114,260,55,78,78,0,t,0.03470319998450577,None,0,78,78,97,91.56990460000816,,91.55768450000323,91.56990460000816,92.56812360000913,92.56812360000913,92.58489840000402,92.61895430000732,t,0.03470319998450577,None,Participant_03,001,2025-11-06_06h44.42.889,Delay Discounting,,2025.1.1,59.67256470706041,2025-11-06 06h44.57.593018 +0530,
55,80,75,79,79,0,t,0.16155560000333935,None,0,79,79,22,92.63543510000454,,92.62264369998593,92.63543510000454,93.61959739998565,93.61959739998565,93.63629460000084,93.78674479998881,t,0.16155560000333935,None,Participant_03,001,2025-11-06_06h44.42.889,Delay Discounting,,2025.1.1,59.67256470706041,2025-11-06 06h44.57.593018 +0530,
48,96,22,80,80,0,t,0.15564119999180548,None,0,80,80,64,93.80281470000045,,93.79076169998734,93.80281470000045,94.80280619999394,94.80280619999394,94.80280619999394,94.96892779998598,t,0.15564119999180548,None,Participant_03,001,2025-11-06_06h44.42.889,Delay Discounting,,2025.1.1,59.67256470706041,2025-11-06 06h44.57.593018 +0530,
74,160,35,81,81,0,t,0.07864429999608546,None,0,81,81,77,94.98467340000207,,94.97197929999675,94.98467340000207,95.96930850000354,95.96930850000354,95.9858680999896,96.05315809999593,t,0.07864429999608546,None,Participant_03,001,2025-11-06_06h44.42.889,Delay Discounting,,2025.1.1,59.67256470706041,2025-11-06 06h44.57.593018 +0530,
70,150,33,82,82,0,t,0.14279779998469166,None,0,82,82,75,96.06915819999995,,96.05784069999936,96.06915819999995,97.06753510000999,97.06753510000999,97.08468510000966,97.2183657999849,t,0.14279779998469166,None,Participant_03,001,2025-11-06_06h44.42.889,Delay Discounting,,2025.1.1,59.67256470706041,2025-11-06 06h44.57.593018 +0530,
37,65,40,83,83,0,t,0.033348500001011416,None,0,83,83,15,97.23455960000865,,97.2209514999995,97.23455960000865,98.21807489998173,98.21807489998173,98.23469620000105,98.26862620000611,t,0.033348500001011416,None,Participant_03,001,2025-11-06_06h44.42.889,Delay Discounting,,2025.1.1,59.67256470706041,2025-11-06 06h44.57.593018 +0530,
116,265,56,84,84,0,l,0.037624499993398786,None,0,84,84,98,98.28445569999167,,98.27145529998234,98.28445569999167,99.26890500000445,99.26890500000445,99.28556749998825,99.31934170000022,l,0.037624499993398786,None,Participant_03,001,2025-11-06_06h44.42.889,Delay Discounting,,2025.1.1,59.67256470706041,2025-11-06 06h44.57.593018 +0530,
88,195,42,85,85,0,l,0.05782229997566901,None,0,85,85,84,99.3355908000085,,99.32371179998154,99.3355908000085,100.33495829999447,100.33495829999447,100.33495829999447,100.4027064999973,l,0.05782229997566901,None,Participant_03,001,2025-11-06_06h44.42.889,Delay Discounting,,2025.1.1,59.67256470706041,2025-11-06 06h44.57.593018 +0530,
33,55,30,86,86,0,t,0.11797170000500046,None,0,86,86,13,100.41891829998349,,100.40748999998323,100.41891829998349,101.41758290000143,101.41758290000143,101.43505199998617,101.5528970999876,t,0.11797170000500046,None,Participant_03,001,2025-11-06_06h44.42.889,Delay Discounting,,2025.1.1,59.67256470706041,2025-11-06 06h44.57.593018 +0530,
40,80,18,87,87,0,t,0.1299496999999974,None,0,87,87,60,101.56878119998146,,101.55732490000082,101.56878119998146,102.55188019998604,102.55188019998604,102.56884210000862,102.68640139998752,t,0.1299496999999974,None,Participant_03,001,2025-11-06_06h44.42.889,Delay Discounting,,2025.1.1,59.67256470706041,2025-11-06 06h44.57.593018 +0530,
38,76,17,88,88,0,t,0.014345100003993139,None,0,88,88,59,102.7186090000032,,102.6930105999927,102.7186090000032,103.70068529999116,103.70068529999116,103.73472099998617,103.71825899998657,t,0.014345100003993139,None,Participant_03,001,2025-11-06_06h44.42.889,Delay Discounting,,2025.1.1,59.67256470706041,2025-11-06 06h44.57.593018 +0530,
20,40,8,89,89,0,t,0.05060310001135804,None,0,89,89,50,103.73472099998617,,103.72179219999816,103.73472099998617,104.73398059999454,104.73398059999454,104.73398059999454,104.80126720000408,t,0.05060310001135804,None,Participant_03,001,2025-11-06_06h44.42.889,Delay Discounting,,2025.1.1,59.67256470706041,2025-11-06 06h44.57.593018 +0530,
82,180,39,90,90,0,t,0.05052099999738857,None,0,90,90,81,104.81719999999041,,104.80398379999679,104.81719999999041,105.80085209998651,105.80085209998651,105.81713949999539,105.85233289998723,t,0.05052099999738857,None,Participant_03,001,2025-11-06_06h44.42.889,Delay Discounting,,2025.1.1,59.67256470706041,2025-11-06 06h44.57.593018 +0530,
53,78,70,91,91,0,l,0.19429340001079254,None,0,91,91,21,105.8674663999991,,105.85663890000433,105.8674663999991,106.85156039998401,106.85156039998401,106.86775499998475,107.05191479998757,l,0.19429340001079254,None,Participant_03,001,2025-11-06_06h44.42.889,Delay Discounting,,2025.1.1,59.67256470706041,2025-11-06 06h44.57.593018 +0530,
28,48,20,92,92,0,t,0.2991057999897748,None,0,92,92,11,107.06820869998774,,107.05658249999397,107.06820869998774,108.06811749999179,108.06811749999179,108.06811749999179,108.36778719999711,t,0.2991057999897748,None,Participant_03,001,2025-11-06_06h44.42.889,Delay Discounting,,2025.1.1,59.67256470706041,2025-11-06 06h44.57.593018 +0530,
92,205,44,93,93,0,l,0.3306755000085104,None,0,93,93,86,108.38427159999264,,108.37133550000726,108.38427159999264,109.38358979998156,109.38358979998156,109.38358979998156,109.71718149998924,l,0.3306755000085104,None,Participant_03,001,2025-11-06_06h44.42.889,Delay Discounting,,2025.1.1,59.67256470706041,2025-11-06 06h44.57.593018 +0530,
45,72,55,94,94,0,l,0.3303930000110995,None,0,94,94,18,109.73320620000595,,109.72069919999922,109.73320620000595,110.7164625999867,110.7164625999867,110.73312029999215,111.05075399999623,l,0.3303930000110995,None,Participant_03,001,2025-11-06_06h44.42.889,Delay Discounting,,2025.1.1,59.67256470706041,2025-11-06 06h44.57.593018 +0530,
112,255,54,95,95,0,l,0.023669699992751703,None,0,95,95,96,111.06636500000604,,111.05361390000326,111.06636500000604,112.050199099991,112.050199099991,112.06739799998468,112.08447209998849,l,0.023669699992751703,None,Participant_03,001,2025-11-06_06h44.42.889,Delay Discounting,,2025.1.1,59.67256470706041,2025-11-06 06h44.57.593018 +0530,
76,100,125,96,96,0,t,0.14668229999369942,None,0,96,96,32,112.10016689999611,,112.08822219999274,112.10016689999611,113.08414759999141,113.08414759999141,113.10082610000973,113.2349028000026,t,0.14668229999369942,None,Participant_03,001,2025-11-06_06h44.42.889,Delay Discounting,,2025.1.1,59.67256470706041,2025-11-06 06h44.57.593018 +0530,
108,245,52,97,97,0,l,0.13760570000158623,None,0,97,97,94,113.25090990000172,,113.23959069998818,113.25090990000172,114.24934399998165,114.24934399998165,114.26601679998566,114.39991390000796,l,0.13760570000158623,None,Participant_03,001,2025-11-06_06h44.42.889,Delay Discounting,,2025.1.1,59.67256470706041,2025-11-06 06h44.57.593018 +0530,
102,230,49,98,98,0,t,0.27963350000209175,None,0,98,98,91,114.41627789998893,,114.40321419999236,114.41627789998893,115.39960370000335,115.39960370000335,115.41647699999157,115.68316230000346,t,0.27963350000209175,None,Participant_03,001,2025-11-06_06h44.42.889,Delay Discounting,,2025.1.1,59.67256470706041,2025-11-06 06h44.57.593018 +0530,
67,75,119,99,99,0,t,0.13061359999119304,None,0,99,99,5,115.69962559998385,,115.68591379999998,115.69962559998385,116.68380299999262,116.68380299999262,116.70054940000409,116.81775829999242,t,0.13061359999119304,None,Participant_03,001,2025-11-06_06h44.42.889,Delay Discounting,,2025.1.1,59.67256470706041,2025-11-06 06h44.57.593018 +0530,
