delay,freq,condition,thisN,thisTrialN,thisRepN,key_resp.keys,key_resp.rt,key_resp.duration,textbox.text,button.numClicks,button.timesOn,button.timesOff,trials.thisRepN,trials.thisTrialN,trials.thisN,trials.thisIndex,thisRow.t,notes,trial.started,polygon.started,polygon_2.started,key_resp.started,polygon.stopped,trial.stopped,trials.key_resp.keys,trials.key_resp.rt,trials.key_resp.duration,beep.started,sound_1.started,sound_1.stopped,beep.stopped,response.started,text.started,textbox.started,button.started,response.stopped,trials.textbox.text,trials.button.numClicks,trials.button.timesOn,trials.button.timesOff,participant,session,date,expName,expVersion,psychopyVersion,frameRate,expStart,
0.7,400.0,unexp,0,0,0,space,0.8221861000019999,None,,1,[2.883626599999843],[2.8836387999981525],0,0,0,2,0.054991100001643645,,0.042022699999506585,0.054991100001643645,1.0066373000008753,1.0066373000008753,1.0565043000024161,1.8461387000024843,space,0.8221861000019999,None,1.8469619999996212,2.555368466666793,2.8887837000002037,2.854902700000821,2.856253800000559,2.8887837000002037,2.8887837000002037,2.8887837000002037,5.772815000000264,,1,[2.883626599999843],[2.8836387999981525],PARTICIPANT_,001,2025-11-13_18h12.28.392,Intentional Binding_exp,,2025.1.1,60.83320811735984,2025-11-13 18h12.48.323899 +0530,
0.1,400.0,unexp,1,1,0,space,0.07966320000195992,None,,1,[0.6341052000025229],[0.6341164000004937],0,1,1,0,5.7886981000010564,,5.773175599999377,5.7886981000010564,6.772200899999007,6.772200899999007,6.789231499999005,6.85592220000035,space,0.07966320000195992,None,6.856643499999336,6.955494666668771,7.270973999999114,7.25683779999963,7.257236299999931,7.270973999999114,7.270973999999114,7.270973999999114,7.905433700001595,,1,[0.6341052000025229],[0.6341164000004937],PARTICIPANT_,001,2025-11-13_18h12.28.392,Intentional Binding_exp,,2025.1.1,60.83320811735984,2025-11-13 18h12.48.323899 +0530,
0.4,1000.0,exp,2,2,0,space,0.12606899999809684,None,,1,[0.2508701000006113],[0.2508793999986665],0,2,2,4,7.922118700000283,,7.905714000000444,7.922118700000283,8.907900800000789,8.907900800000789,8.924293300002319,9.040303400000994,space,0.12606899999809684,None,9.041216600002372,9.43955116666645,9.771711299999879,9.744122700001753,9.74467580000055,9.771711299999879,9.771711299999879,9.771711299999879,10.022894199999428,,1,[0.2508701000006113],[0.2508793999986665],PARTICIPANT_,001,2025-11-13_18h12.28.392,Intentional Binding_exp,,2025.1.1,60.83320811735984,2025-11-13 18h12.48.323899 +0530,
0.7,1000.0,exp,3,3,0,space,0.07904200000120909,None,,1,[0.3357729000017571],[0.3357833000009123],0,3,3,11,10.039378800000122,,10.023157600000559,10.039378800000122,11.039355000000796,11.039355000000796,11.039355000000796,11.12262600000031,space,0.07904200000120909,None,11.1232611000014,11.822457566668406,12.136984200002189,12.119801400000142,12.120175000000017,12.136984200002189,12.136984200002189,12.136984200002189,12.473113200001535,,1,[0.3357729000017571],[0.3357833000009123],PARTICIPANT_,001,2025-11-13_18h12.28.392,Intentional Binding_exp,,2025.1.1,60.83320811735984,2025-11-13 18h12.48.323899 +0530,
0.1,1000.0,exp,4,4,0,space,0.16580969999995432,None,,1,[0.6168924000012339],[0.6169072000011511],0,4,4,6,12.48878970000078,,12.473371700001735,12.48878970000078,13.471786099999008,13.471786099999008,13.488851699999941,13.640745799999422,space,0.16580969999995432,None,13.641713000000891,13.755185666668938,14.070363400001952,14.050245300000824,14.050767700002325,14.070363400001952,14.070363400001952,14.070363400001952,14.68771100000231,,1,[0.6168924000012339],[0.6169072000011511],PARTICIPANT_,001,2025-11-13_18h12.28.392,Intentional Binding_exp,,2025.1.1,60.83320811735984,2025-11-13 18h12.48.323899 +0530,
0.4,400.0,unexp,5,5,0,space,0.03647549999732291,None,,1,[0.3337872000010975],[0.33379710000008345],0,5,5,1,14.704835000000458,,14.687956100002339,14.704835000000458,15.687926900001912,15.687926900001912,15.704868100001477,15.739040399999794,space,0.03647549999732291,None,15.739628900002572,16.13840686666687,16.471217300000717,16.441947700001037,16.442332599999645,16.471217300000717,16.471217300000717,16.471217300000717,16.805310700001428,,1,[0.3337872000010975],[0.33379710000008345],PARTICIPANT_,001,2025-11-13_18h12.28.392,Intentional Binding_exp,,2025.1.1,60.83320811735984,2025-11-13 18h12.48.323899 +0530,
0.7,1000.0,exp,6,6,0,space,0.42353150000053574,None,,1,[0.13499080000110553],[0.13500700000076904],0,6,6,8,16.822268600000825,,16.805554099999426,16.822268600000825,17.804730899999413,17.804730899999413,17.821250500001042,18.2386499000022,space,0.42353150000053574,None,18.239216100002523,18.95519506666848,19.286547100000462,19.259323700000095,19.25970210000014,19.286547100000462,19.286547100000462,19.286547100000462,19.421974200002296,,1,[0.13499080000110553],[0.13500700000076904],PARTICIPANT_,001,2025-11-13_18h12.28.392,Intentional Binding_exp,,2025.1.1,60.83320811735984,2025-11-13 18h12.48.323899 +0530,
0.4,1000.0,exp,7,7,0,space,0.16189989999838872,None,,1,[0.2694465999993554],[0.2694597000008798],0,7,7,10,19.437968599999294,,19.422220299999026,19.437968599999294,20.42087420000098,20.42087420000098,20.43762290000086,20.58895499999926,space,0.16189989999838872,None,20.58984860000055,20.988772366669096,21.303276700000424,21.286196699998982,21.28670240000065,21.303276700000424,21.303276700000424,21.303276700000424,21.57317850000254,,1,[0.2694465999993554],[0.2694597000008798],PARTICIPANT_,001,2025-11-13_18h12.28.392,Intentional Binding_exp,,2025.1.1,60.83320811735984,2025-11-13 18h12.48.323899 +0530,
0.1,1000.0,exp,8,8,0,space,0.03738590000284603,None,,1,[0.415882799999963],[0.41589509999903385],0,8,8,9,21.5874115000006,,21.57350430000224,21.5874115000006,22.573577999999543,22.573577999999543,22.589423100002023,22.623382600002515,space,0.03738590000284603,None,22.624304400000256,22.723696766668823,23.055274199999985,23.022598700001254,23.023244899999554,23.055274199999985,23.055274199999985,23.055274199999985,23.471593099999154,,1,[0.415882799999963],[0.41589509999903385],PARTICIPANT_,001,2025-11-13_18h12.28.392,Intentional Binding_exp,,2025.1.1,60.83320811735984,2025-11-13 18h12.48.323899 +0530,
0.7,1000.0,exp,9,9,0,space,0.4640118999996048,None,,1,[0.0008052000011957716],[0.0008202000026358292],0,9,9,5,23.487077199999476,,23.47185510000054,23.487077199999476,24.47312570000213,24.47312570000213,24.49000900000101,24.93769180000163,space,0.4640118999996048,None,24.938495200000034,25.636957566668812,25.972222899999906,25.93667600000117,25.93715499999962,25.972222899999906,25.972222899999906,25.972222899999906,25.97345100000166,,1,[0.0008052000011957716],[0.0008202000026358292],PARTICIPANT_,001,2025-11-13_18h12.28.392,Intentional Binding_exp,,2025.1.1,60.83320811735984,2025-11-13 18h12.48.323899 +0530,
0.4,1000.0,exp,10,10,0,space,0.2620253000022785,None,,1,[0.30115160000059404],[0.30116040000211797],0,10,10,7,25.989698100001988,,25.97378480000043,25.989698100001988,26.98687820000123,26.98687820000123,27.00420959999974,27.254568200001813,space,0.2620253000022785,None,27.255142900001374,27.656270966668913,27.98565719999897,27.955186700000922,27.9555818000008,27.98565719999897,27.98565719999897,27.98565719999897,28.287112400001206,,1,[0.30115160000059404],[0.30116040000211797],PARTICIPANT_,001,2025-11-13_18h12.28.392,Intentional Binding_exp,,2025.1.1,60.83320811735984,2025-11-13 18h12.48.323899 +0530,
0.1,1000.0,exp,11,11,0,space,0.06618449999950826,None,,1,[0.5344183000015619],[0.5344312000015634],0,11,11,3,28.303824700000405,,28.287356799999543,28.303824700000405,29.289702599999146,29.289702599999146,29.303271500000847,29.370718000001943,space,0.06618449999950826,None,29.371655300001294,29.470712366666945,29.803040499999042,29.77199330000076,29.772550699999556,29.803040499999042,29.803040499999042,29.803040499999042,30.337854000001244,,1,[0.5344183000015619],[0.5344312000015634],PARTICIPANT_,001,2025-11-13_18h12.28.392,Intentional Binding_exp,,2025.1.1,60.83320811735984,2025-11-13 18h12.48.323899 +0530,
0.4,400.0,unexp,12,0,1,space,0.2589847999988706,None,,1,[0.31646140000157175],[0.3164711999997962],1,0,12,1,30.35405560000072,,30.338137599999754,30.35405560000072,31.352977599999576,31.352977599999576,31.36948019999909,31.62059070000032,space,0.2589847999988706,None,31.621543100001873,32.019719466669144,32.335723700001836,32.317407400001684,32.31792689999929,32.335723700001836,32.335723700001836,32.335723700001836,32.652513900000486,,1,[0.31646140000157175],[0.3164711999997962],PARTICIPANT_,001,2025-11-13_18h12.28.392,Intentional Binding_exp,,2025.1.1,60.83320811735984,2025-11-13 18h12.48.323899 +0530,
0.4,1000.0,exp,13,1,1,space,0.03456010000081733,None,,1,[0.2692053999999189],[0.26922019999983604],1,1,13,10,32.66984109999976,,32.65280350000103,32.66984109999976,33.655409099999815,33.655409099999815,33.67195139999967,33.70598040000186,space,0.03456010000081733,None,33.70677070000238,34.11957516666759,34.4348127000012,34.41771900000094,34.418117500001244,34.4348127000012,34.4348127000012,34.4348127000012,34.704505900001095,,1,[0.2692053999999189],[0.26922019999983604],PARTICIPANT_,001,2025-11-13_18h12.28.392,Intentional Binding_exp,,2025.1.1,60.83320811735984,2025-11-13 18h12.48.323899 +0530,
0.4,1000.0,exp,14,2,1,space,0.5053267000002961,None,,1,[0.2825153000012506],[0.2825240999991365],1,2,14,4,34.720235100001446,,34.704781500000536,34.720235100001446,35.71899069999927,35.71899069999927,35.7360007999996,36.23632010000074,space,0.5053267000002961,None,36.2368948000003,36.63611016666643,36.954313099999126,36.93084590000217,36.93138050000198,36.954313099999126,36.954313099999126,36.954313099999126,37.23720410000169,,1,[0.2825153000012506],[0.2825240999991365],PARTICIPANT_,001,2025-11-13_18h12.28.392,Intentional Binding_exp,,2025.1.1,60.83320811735984,2025-11-13 18h12.48.323899 +0530,
0.7,1000.0,exp,15,3,1,space,0.2273642000000109,None,,1,[0.11784979999720235],[0.11785880000024918],1,3,15,11,37.25715470000068,,37.23749790000147,37.25715470000068,38.23605160000079,38.23605160000079,38.269521900001564,38.46998299999905,space,0.2273642000000109,None,38.47067230000175,39.185804466666255,39.501793100000214,39.48297720000119,39.48348950000218,39.501793100000214,39.501793100000214,39.501793100000214,39.61994340000092,,1,[0.11784979999720235],[0.11785880000024918],PARTICIPANT_,001,2025-11-13_18h12.28.392,Intentional Binding_exp,,2025.1.1,60.83320811735984,2025-11-13 18h12.48.323899 +0530,
0.7,1000.0,exp,16,4,1,space,0.14328679999744054,None,,1,[0.1350477999985742],[0.13506520000009914],1,4,16,8,39.63539590000073,,39.620185100000526,39.63539590000073,40.63572009999916,40.63572009999916,40.63572009999916,40.78675850000218,space,0.14328679999744054,None,40.78735080000115,41.50234076666699,41.834226499999204,41.80371290000039,41.80445619999955,41.834226499999204,41.834226499999204,41.834226499999204,41.96978930000114,,1,[0.1350477999985742],[0.13506520000009914],PARTICIPANT_,001,2025-11-13_18h12.28.392,Intentional Binding_exp,,2025.1.1,60.83320811735984,2025-11-13 18h12.48.323899 +0530,
0.1,1000.0,exp,17,5,1,space,0.1223757999978261,None, ,1,[2.217525199997908],[2.2175333999985014],1,5,17,3,41.98569910000151,,41.970071600000665,41.98569910000151,42.98593070000061,42.98593070000061,42.98593070000061,43.11938460000238,space,0.1223757999978261,None,43.12009500000204,43.21872946666578,43.53388520000226,43.51027140000224,43.510788700001285,43.53388520000226,43.53388520000226,43.53388520000226,45.75171279999995, ,1,[2.217525199997908],[2.2175333999985014],PARTICIPANT_,001,2025-11-13_18h12.28.392,Intentional Binding_exp,,2025.1.1,60.83320811735984,2025-11-13 18h12.48.323899 +0530,
0.7,400.0,unexp,18,6,1,space,0.013147800000297138,None,,1,[0.03376189999835333],[0.03377149999869289],1,6,18,2,45.76788040000247,,45.75197340000159,45.76788040000247,46.75130920000083,46.75130920000083,46.76820829999997,46.768858100000216,space,0.013147800000297138,None,46.76949690000038,47.47401396666852,47.80083510000259,47.77958829999989,47.78010020000147,47.80083510000259,47.80083510000259,47.80083510000259,47.83490370000072,,1,[0.03376189999835333],[0.03377149999869289],PARTICIPANT_,001,2025-11-13_18h12.28.392,Intentional Binding_exp,,2025.1.1,60.83320811735984,2025-11-13 18h12.48.323899 +0530,
0.1,1000.0,exp,19,7,1,space,0.030017900000530062,None,,1,[0.7164043000011588],[0.716419100001076],1,7,19,6,47.851292999999714,,47.83514540000033,47.851292999999714,48.83516040000177,48.83516040000177,48.85203520000141,48.86936380000043,space,0.030017900000530062,None,48.870102799999586,48.98532496666691,49.301756799999566,49.28390180000133,49.28448760000174,49.301756799999566,49.301756799999566,49.301756799999566,50.01880280000114,,1,[0.7164043000011588],[0.716419100001076],PARTICIPANT_,001,2025-11-13_18h12.28.392,Intentional Binding_exp,,2025.1.1,60.83320811735984,2025-11-13 18h12.48.323899 +0530,
0.7,1000.0,exp,20,8,1,space,0.058811499999137595,None,,1,[0.36745909999808646],[0.36746879999918747],1,8,20,5,50.0342911000007,,50.019113400001515,50.0342911000007,51.02046229999905,51.02046229999905,51.03734869999971,51.087309300000925,space,0.058811499999137595,None,51.08803170000101,51.80078796666591,52.116945400000986,52.09882199999993,52.09919430000082,52.116945400000986,52.116945400000986,52.116945400000986,52.48474750000241,,1,[0.36745909999808646],[0.36746879999918747],PARTICIPANT_,001,2025-11-13_18h12.28.392,Intentional Binding_exp,,2025.1.1,60.83320811735984,2025-11-13 18h12.48.323899 +0530,
0.1,400.0,unexp,21,9,1,space,0.02657270000054268,None,,1,[0.5033700999993016],[0.5033818000010797],1,9,21,0,52.501868499999546,,52.484995400001935,52.501868499999546,53.48445990000255,53.48445990000255,53.50051499999972,53.51795850000053,space,0.02657270000054268,None,53.51852030000009,53.617571666665995,53.932936600001995,53.91294140000173,53.91351450000002,53.932936600001995,53.932936600001995,53.932936600001995,54.43668830000024,,1,[0.5033700999993016],[0.5033818000010797],PARTICIPANT_,001,2025-11-13_18h12.28.392,Intentional Binding_exp,,2025.1.1,60.83320811735984,2025-11-13 18h12.48.323899 +0530,
0.4,1000.0,exp,22,10,1,space,0.0752783999996609,None,,1,[0.3166234999989683],[0.3166334999987157],1,10,22,7,54.45083710000108,,54.436950700001034,54.45083710000108,55.45028420000017,55.45028420000017,55.45028420000017,55.534310499999265,space,0.0752783999996609,None,55.534884700002294,55.93455446666873,56.26728350000121,56.23719379999966,56.237627900001826,56.26728350000121,56.26728350000121,56.26728350000121,56.58423440000115,,1,[0.3166234999989683],[0.3166334999987157],PARTICIPANT_,001,2025-11-13_18h12.28.392,Intentional Binding_exp,,2025.1.1,60.83320811735984,2025-11-13 18h12.48.323899 +0530,
0.1,1000.0,exp,23,11,1,space,0.14213369999924907,None,,1,[0.48527800000010757],[0.4852868000016315],1,11,23,9,56.600995600001625,,56.58449330000076,56.600995600001625,57.58484440000029,57.58484440000029,57.60118689999945,57.73399269999936,space,0.14213369999924907,None,57.734595800000534,57.83497916666626,58.16584309999962,58.13827569999921,58.1386679999996,58.16584309999962,58.16584309999962,58.16584309999962,58.65143840000019,,1,[0.48527800000010757],[0.4852868000016315],PARTICIPANT_,001,2025-11-13_18h12.28.392,Intentional Binding_exp,,2025.1.1,60.83320811735984,2025-11-13 18h12.48.323899 +0530,
0.7,1000.0,exp,24,0,2,space,0.5509428000004846,None,,1,[0.067312099999981],[0.06732069999998203],2,0,24,5,58.66739880000023,,58.651681900002586,58.66739880000023,59.66701960000137,59.66701960000137,59.66701960000137,60.220474800000375,space,0.5509428000004846,None,60.22148279999965,60.933325766666044,61.24996699999974,61.231034200001886,61.2314652999994,61.24996699999974,61.24996699999974,61.24996699999974,61.317578300000605,,1,[0.067312099999981],[0.06732069999998203],PARTICIPANT_,001,2025-11-13_18h12.28.392,Intentional Binding_exp,,2025.1.1,60.83320811735984,2025-11-13 18h12.48.323899 +0530,
0.7,400.0,unexp,25,1,2,space,0.21964749999824562,None,,1,[0.08283980000123847],[0.08285560000149417],2,1,25,2,61.33282940000208,,61.3178740000003,61.33282940000208,62.317794099999446,62.317794099999446,62.33308060000127,62.55181129999983,space,0.21964749999824562,None,62.55259010000009,63.2519054666666,63.58282870000039,63.55348790000062,63.55389060000016,63.58282870000039,63.58282870000039,63.58282870000039,63.66620089999924,,1,[0.08283980000123847],[0.08285560000149417],PARTICIPANT_,001,2025-11-13_18h12.28.392,Intentional Binding_exp,,2025.1.1,60.83320811735984,2025-11-13 18h12.48.323899 +0530,
0.1,1000.0,exp,26,2,2,space,0.23687629999767523,None,,1,[0.5339275000005728],[0.5339368999993894],2,2,26,6,63.68329960000119,,63.666550100002496,63.68329960000119,64.66721099999995,64.66721099999995,64.68265800000154,64.91646930000206,space,0.23687629999767523,None,64.9170503000023,65.01699946666874,65.33242270000119,65.31351490000088,65.31415190000189,65.33242270000119,65.33242270000119,65.33242270000119,65.86666239999977,,1,[0.5339275000005728],[0.5339368999993894],PARTICIPANT_,001,2025-11-13_18h12.28.392,Intentional Binding_exp,,2025.1.1,60.83320811735984,2025-11-13 18h12.48.323899 +0530,
0.4,1000.0,exp,27,3,2,space,0.058589000000210945,None,,1,[0.23318920000019716],[0.23319869999977527],2,3,27,7,65.8833388000021,,65.86691770000107,65.8833388000021,66.86601660000088,66.86601660000088,66.88305260000197,66.93373490000158,space,0.058589000000210945,None,66.93454639999982,67.33347356666879,67.64983750000101,67.63024850000147,67.63064730000042,67.64983750000101,67.64983750000101,67.64983750000101,67.88333219999913,,1,[0.23318920000019716],[0.23319869999977527],PARTICIPANT_,001,2025-11-13_18h12.28.392,Intentional Binding_exp,,2025.1.1,60.83320811735984,2025-11-13 18h12.48.323899 +0530,
0.4,1000.0,exp,28,4,2,space,0.007047600000078091,None,,1,[0.21656369999982417],[0.21658229999957257],2,4,28,4,67.89980320000177,,67.88365550000162,67.89980320000177,68.88350519999949,68.88350519999949,68.89987100000144,68.90047250000134,space,0.007047600000078091,None,68.90134279999984,69.30084516666854,69.63361850000001,69.60787730000084,69.60842559999946,69.63361850000001,69.63361850000001,69.63361850000001,69.85072170000058,,1,[0.21656369999982417],[0.21658229999957257],PARTICIPANT_,001,2025-11-13_18h12.28.392,Intentional Binding_exp,,2025.1.1,60.83320811735984,2025-11-13 18h12.48.323899 +0530,
0.4,1000.0,exp,29,5,2,space,0.4318658000011055,None,,1,[0.21672269999908167],[0.21673119999832124],2,5,29,10,69.86617910000132,,69.85097870000027,69.86617910000132,70.84917770000175,70.84917770000175,70.86573860000135,71.28265590000228,space,0.4318658000011055,None,71.28322409999964,71.68337956666825,72.01595599999928,71.98488999999972,71.98538190000181,72.01595599999928,72.01595599999928,72.01595599999928,72.23301510000238,,1,[0.21672269999908167],[0.21673119999832124],PARTICIPANT_,001,2025-11-13_18h12.28.392,Intentional Binding_exp,,2025.1.1,60.83320811735984,2025-11-13 18h12.48.323899 +0530,
0.1,1000.0,exp,30,6,2,space,0.02882310000131838,None,,1,[0.9835810999975365],[0.9836007999983849],2,6,30,9,72.24957550000181,,72.23326559999987,72.24957550000181,73.23233860000255,73.23233860000255,73.24893900000097,73.2662945000011,space,0.02882310000131838,None,73.26695060000202,73.36586106666824,73.68126050000137,73.66550510000161,73.66597620000175,73.68126050000137,73.68126050000137,73.68126050000137,74.66540090000126,,1,[0.9835810999975365],[0.9836007999983849],PARTICIPANT_,001,2025-11-13_18h12.28.392,Intentional Binding_exp,,2025.1.1,60.83320811735984,2025-11-13 18h12.48.323899 +0530,
0.1,1000.0,exp,31,7,2,space,0.37814829999842914,None,,1,[0.7326904000001377],[0.7326987000014924],2,7,31,3,74.68211159999919,,74.66580130000148,74.68211159999919,75.66548039999907,75.66548039999907,75.68208439999944,76.04941490000056,space,0.37814829999842914,None,76.0502000000015,76.14925666666774,76.46500360000209,76.44574579999971,76.44661970000016,76.46500360000209,76.46500360000209,76.46500360000209,77.19802870000058,,1,[0.7326904000001377],[0.7326987000014924],PARTICIPANT_,001,2025-11-13_18h12.28.392,Intentional Binding_exp,,2025.1.1,60.83320811735984,2025-11-13 18h12.48.323899 +0530,
0.7,1000.0,exp,32,8,2,space,0.0842142999972566,None,,1,[0.1166668000005302],[0.11667759999909322],2,8,32,8,77.21664040000178,,77.19829110000137,77.21664040000178,78.20284000000174,78.20284000000174,78.21871699999974,78.30194889999984,space,0.0842142999972566,None,78.30278410000028,79.01570236666909,79.33177480000086,79.31088699999964,79.31157990000065,79.33177480000086,79.33177480000086,79.33177480000086,79.44886179999958,,1,[0.1166668000005302],[0.11667759999909322],PARTICIPANT_,001,2025-11-13_18h12.28.392,Intentional Binding_exp,,2025.1.1,60.83320811735984,2025-11-13 18h12.48.323899 +0530,
0.1,400.0,unexp,33,9,2,space,0.19692570000188425,None,,1,[0.46683350000239443],[0.4668483000023116],2,9,33,0,79.46733949999907,,79.44912280000062,79.46733949999907,80.44873510000252,80.44873510000252,80.48277690000032,80.64978809999957,space,0.19692570000188425,None,80.65037980000125,80.75014456666783,81.0807934000004,81.05083510000259,81.0513092000001,81.0807934000004,81.0807934000004,81.0807934000004,81.54809670000031,,1,[0.46683350000239443],[0.4668483000023116],PARTICIPANT_,001,2025-11-13_18h12.28.392,Intentional Binding_exp,,2025.1.1,60.83320811735984,2025-11-13 18h12.48.323899 +0530,
0.7,1000.0,exp,34,10,2,space,0.45110659999772906,None,,1,[0.12101350000011735],[0.12102020000020275],2,10,34,11,81.56551020000188,,81.54851340000096,81.56551020000188,82.54835280000043,82.54835280000043,82.56476069999917,83.01579760000095,space,0.45110659999772906,None,83.01646610000171,83.71628596666802,84.04661040000065,84.01899350000167,84.01934289999917,84.04661040000065,84.04661040000065,84.04661040000065,84.16787530000147,,1,[0.12101350000011735],[0.12102020000020275],PARTICIPANT_,001,2025-11-13_18h12.28.392,Intentional Binding_exp,,2025.1.1,60.83320811735984,2025-11-13 18h12.48.323899 +0530,
0.4,400.0,unexp,35,11,2,space,0.059275899999192916,None,,1,[0.3173580000002403],[0.3173650999997335],2,11,35,1,84.18119959999967,,84.16806910000014,84.18119959999967,85.18204740000147,85.18204740000147,85.18204740000147,85.24827970000115,space,0.059275899999192916,None,85.24899170000208,85.64807696666709,85.96367570000075,85.94447690000015,85.94501170000149,85.96367570000075,85.96367570000075,85.96367570000075,86.28129660000195,,1,[0.3173580000002403],[0.3173650999997335],PARTICIPANT_,001,2025-11-13_18h12.28.392,Intentional Binding_exp,,2025.1.1,60.83320811735984,2025-11-13 18h12.48.323899 +0530,
0.1,1000.0,exp,36,0,3,space,0.04572820000248612,None,,1,[0.36763329999666894],[0.3676419999974314],3,0,36,9,86.29746800000066,,86.2815214000002,86.29746800000066,87.28450789999988,87.28450789999988,87.30050449999908,87.33432069999981,space,0.04572820000248612,None,87.33495290000064,87.45013836666864,87.78065040000001,87.75035850000131,87.75072260000161,87.78065040000001,87.78065040000001,87.78065040000001,88.14863960000002,,1,[0.36763329999666894],[0.3676419999974314],PARTICIPANT_,001,2025-11-13_18h12.28.392,Intentional Binding_exp,,2025.1.1,60.83320811735984,2025-11-13 18h12.48.323899 +0530,
0.4,400.0,unexp,37,1,3,space,0.47713499999736086,None,,1,[0.3353672999983246],[0.33537449999857927],3,1,37,1,88.16398069999923,,88.14885829999912,88.16398069999923,89.1491059,89.1491059,89.16497349999918,89.63235830000121,space,0.47713499999736086,None,89.63319570000021,90.04990036666665,90.38143430000127,90.3519727999992,90.3524419000023,90.38143430000127,90.38143430000127,90.38143430000127,90.7170886999993,,1,[0.3353672999983246],[0.33537449999857927],PARTICIPANT_,001,2025-11-13_18h12.28.392,Intentional Binding_exp,,2025.1.1,60.83320811735984,2025-11-13 18h12.48.323899 +0530,
0.1,1000.0,exp,38,2,3,space,0.17086839999683434,None,,1,[0.41779179999866756],[0.41781319999790867],3,2,38,6,90.7332501000019,,90.7173158000005,90.7332501000019,91.73601029999918,91.73601029999918,91.73601029999918,91.9173449000009,space,0.17086839999683434,None,91.91797399999996,92.01660756666776,92.33039859999917,92.31626700000197,92.31658040000184,92.33039859999917,92.33039859999917,92.33039859999917,92.74859239999932,,1,[0.41779179999866756],[0.41781319999790867],PARTICIPANT_,001,2025-11-13_18h12.28.392,Intentional Binding_exp,,2025.1.1,60.83320811735984,2025-11-13 18h12.48.323899 +0530,
0.1,1000.0,exp,39,3,3,space,0.03959799999938696,None,,1,[0.967904200002522],[0.9679107000010845],3,3,39,3,92.76356719999967,,92.74881939999977,92.76356719999967,93.76315299999987,93.76315299999987,93.76315299999987,93.81392290000076,space,0.03959799999938696,None,93.81465469999966,93.91302796666811,94.22928510000202,94.21454699999958,94.21492109999963,94.22928510000202,94.22928510000202,94.22928510000202,95.19742110000152,,1,[0.967904200002522],[0.9679107000010845],PARTICIPANT_,001,2025-11-13_18h12.28.392,Intentional Binding_exp,,2025.1.1,60.83320811735984,2025-11-13 18h12.48.323899 +0530,
0.4,1000.0,exp,40,4,3,space,0.01729659999909927,None,,1,[0.18468029999712599],[0.18469009999898844],3,4,40,4,95.21391600000061,,95.19761629999994,95.21391600000061,96.19803270000193,96.19803270000193,96.21452510000017,96.23143880000134,space,0.01729659999909927,None,96.23197140000048,96.63141816666781,96.94630469999902,96.93237670000235,96.93272939999952,96.94630469999902,96.94630469999902,96.94630469999902,97.13131350000185,,1,[0.18468029999712599],[0.18469009999898844],PARTICIPANT_,001,2025-11-13_18h12.28.392,Intentional Binding_exp,,2025.1.1,60.83320811735984,2025-11-13 18h12.48.323899 +0530,
0.4,1000.0,exp,41,5,3,space,0.08760029999757535,None,,1,[0.2028303999977652],[0.20284329999776674],3,5,41,10,97.1464584000023,,97.13152769999942,97.1464584000023,98.13066180000169,98.13066180000169,98.1481230999998,98.23134460000074,space,0.08760029999757535,None,98.23217870000008,98.63136626666916,98.9458854000004,98.93111720000161,98.9314641000019,98.9458854000004,98.9458854000004,98.9458854000004,99.14917020000212,,1,[0.2028303999977652],[0.20284329999776674],PARTICIPANT_,001,2025-11-13_18h12.28.392,Intentional Binding_exp,,2025.1.1,60.83320811735984,2025-11-13 18h12.48.323899 +0530,
0.7,1000.0,exp,42,6,3,space,0.12432289999924251,None,,1,[0.08408750000307919],[0.0840946000025724],3,6,42,11,99.16366740000012,,99.14941109999927,99.16366740000012,100.16297760000089,100.16297760000089,100.16297760000089,100.29626619999908,space,0.12432289999924251,None,100.29673739999998,100.9963929666667,101.31295709999904,101.29423440000028,101.29458929999964,101.31295709999904,101.31295709999904,101.31295709999904,101.39733180000258,,1,[0.08408750000307919],[0.0840946000025724],PARTICIPANT_,001,2025-11-13_18h12.28.392,Intentional Binding_exp,,2025.1.1,60.83320811735984,2025-11-13 18h12.48.323899 +0530,
0.4,1000.0,exp,43,7,3,space,0.26641010000093956,None,,1,[0.28450320000047213],[0.2845157999981893],3,7,43,7,101.41237220000039,,101.39754240000184,101.41237220000039,102.39619590000075,102.39619590000075,102.412804399999,102.6649623000012,space,0.26641010000093956,None,102.66550930000085,103.07887756666629,103.39495660000102,103.37798340000154,103.37845079999897,103.39495660000102,103.39495660000102,103.39495660000102,103.67974440000035,,1,[0.28450320000047213],[0.2845157999981893],PARTICIPANT_,001,2025-11-13_18h12.28.392,Intentional Binding_exp,,2025.1.1,60.83320811735984,2025-11-13 18h12.48.323899 +0530,
0.7,1000.0,exp,44,8,3,space,0.11878260000230512,None,,1,[0.10100410000086413],[0.10101050000230316],3,8,44,8,103.69666440000219,,103.67996979999953,103.69666440000219,104.67913939999926,104.67913939999926,104.69614940000247,104.81298969999989,space,0.11878260000230512,None,104.81346530000155,105.51312736666684,105.82823220000137,105.80848590000096,105.80893830000059,105.82823220000137,105.82823220000137,105.82823220000137,105.92948800000158,,1,[0.10100410000086413],[0.10101050000230316],PARTICIPANT_,001,2025-11-13_18h12.28.392,Intentional Binding_exp,,2025.1.1,60.83320811735984,2025-11-13 18h12.48.323899 +0530,
0.1,400.0,unexp,45,9,3,space,0.31046820000119624,None,,1,[0.4335887000015646],[0.43359589999818127],3,9,45,0,105.94671450000169,,105.92967599999974,105.94671450000169,106.92981520000103,106.92981520000103,106.94613000000027,107.2466611000018,space,0.31046820000119624,None,107.24726279999959,107.3618529666676,107.69604049999907,107.66536730000007,107.66572420000011,107.69604049999907,107.69604049999907,107.69604049999907,108.12997879999966,,1,[0.4335887000015646],[0.43359589999818127],PARTICIPANT_,001,2025-11-13_18h12.28.392,Intentional Binding_exp,,2025.1.1,60.83320811735984,2025-11-13 18h12.48.323899 +0530,
0.7,1000.0,exp,46,10,3,space,0.04689720000169473,None,,1,[0.10242479999942589],[0.10243919999993523],3,10,46,5,108.14605460000166,,108.13028770000165,108.14605460000166,109.14521190000232,109.14521190000232,109.16185400000177,109.19615600000179,space,0.04689720000169473,None,109.19662450000033,109.8960169666682,110.21059959999911,110.19117390000247,110.1916483999994,110.21059959999911,110.21059959999911,110.21059959999911,110.31350690000181,,1,[0.10242479999942589],[0.10243919999993523],PARTICIPANT_,001,2025-11-13_18h12.28.392,Intentional Binding_exp,,2025.1.1,60.83320811735984,2025-11-13 18h12.48.323899 +0530,
0.7,400.0,unexp,47,11,3,space,0.27700019999974757,None,,1,[0.1162906000026851],[0.11630689999947208],3,11,47,2,110.3285644000025,,110.31373800000074,110.3285644000025,111.32815639999899,111.32815639999899,111.32815639999899,111.61188570000013,space,0.27700019999974757,None,111.61233120000179,112.31198616666758,112.64550059999965,112.61509800000204,112.61551289999989,112.64550059999965,112.64550059999965,112.64550059999965,112.76231170000028,,1,[0.1162906000026851],[0.11630689999947208],PARTICIPANT_,001,2025-11-13_18h12.28.392,Intentional Binding_exp,,2025.1.1,60.83320811735984,2025-11-13 18h12.48.323899 +0530,
0.1,1000.0,exp,48,0,4,space,0.25615539999853354,None,,1,[0.5016112000012072],[0.5016197000004468],4,0,48,9,112.77814679999938,,112.76256510000167,112.77814679999938,113.76212310000119,113.76212310000119,113.77853350000078,114.02924270000221,space,0.25615539999853354,None,114.02983769999992,114.1287074666691,114.44345919999978,114.42432710000139,114.42473289999907,114.44345919999978,114.44345919999978,114.44345919999978,114.94541010000103,,1,[0.5016112000012072],[0.5016197000004468],PARTICIPANT_,001,2025-11-13_18h12.28.392,Intentional Binding_exp,,2025.1.1,60.83320811735984,2025-11-13 18h12.48.323899 +0530,
0.7,1000.0,exp,49,1,4,space,0.20885569999882136,None,,1,[0.017259799999010283],[0.017274599998927442],4,1,49,11,114.96131090000199,,114.94564380000156,114.96131090000199,115.94520860000193,115.94520860000193,115.9617528000017,116.16216880000138,space,0.20885569999882136,None,116.16294480000215,116.86268576666795,117.17805120000048,117.1627776000023,117.1631395000004,117.17805120000048,117.17805120000048,117.17805120000048,117.19578240000192,,1,[0.017259799999010283],[0.017274599998927442],PARTICIPANT_,001,2025-11-13_18h12.28.392,Intentional Binding_exp,,2025.1.1,60.83320811735984,2025-11-13 18h12.48.323899 +0530,
0.1,400.0,unexp,50,2,4,space,0.7331555000018852,None,,1,[0.4855573999993794],[0.4855682999987039],4,2,50,0,117.2107087000004,,117.19602510000186,117.2107087000004,118.19581409999955,118.19581409999955,118.21199720000004,118.94472210000094,space,0.7331555000018852,None,118.94557150000037,119.04415026666926,119.3600131000021,119.34658630000195,119.34697500000038,119.3600131000021,119.3600131000021,119.3600131000021,119.84589770000093,,1,[0.4855573999993794],[0.4855682999987039],PARTICIPANT_,001,2025-11-13_18h12.28.392,Intentional Binding_exp,,2025.1.1,60.83320811735984,2025-11-13 18h12.48.323899 +0530,
0.7,1000.0,exp,51,3,4,space,0.12100350000036997,None,,1,[0.10138149999693269],[0.10139349999735714],4,3,51,8,119.86093070000061,,119.8461109000018,119.86093070000061,120.86065640000015,120.86065640000015,120.86065640000015,120.99463760000071,space,0.12100350000036997,None,120.99508730000161,121.6947407666669,122.01004580000154,121.98985750000065,121.99021130000256,122.01004580000154,122.01004580000154,122.01004580000154,122.11173749999944,,1,[0.10138149999693269],[0.10139349999735714],PARTICIPANT_,001,2025-11-13_18h12.28.392,Intentional Binding_exp,,2025.1.1,60.83320811735984,2025-11-13 18h12.48.323899 +0530,
0.1,1000.0,exp,52,4,4,space,0.1633892999998352,None,,1,[0.9013488000018697],[0.9013573000011093],4,4,52,3,122.12703180000244,,122.11193360000107,122.12703180000244,123.111261500002,123.111261500002,123.12771770000109,123.2782909000016,space,0.1633892999998352,None,123.2787313000008,123.39423516666672,123.709423100001,123.69541310000204,123.69572360000166,123.709423100001,123.709423100001,123.709423100001,124.6111086000019,,1,[0.9013488000018697],[0.9013573000011093],PARTICIPANT_,001,2025-11-13_18h12.28.392,Intentional Binding_exp,,2025.1.1,60.83320811735984,2025-11-13 18h12.48.323899 +0530,
0.7,1000.0,exp,53,5,4,space,0.08745389999967301,None,,1,[0.11796060000051511],[0.11796939999840106],4,5,53,5,124.62738050000189,,124.61135060000015,124.62738050000189,125.62691840000116,125.62691840000116,125.62691840000116,125.72763340000165,space,0.08745389999967301,None,125.72827550000147,126.42724206666777,126.74266100000023,126.72461000000112,126.72518180000043,126.74266100000023,126.74266100000023,126.74266100000023,126.86095800000112,,1,[0.11796060000051511],[0.11796939999840106],PARTICIPANT_,001,2025-11-13_18h12.28.392,Intentional Binding_exp,,2025.1.1,60.83320811735984,2025-11-13 18h12.48.323899 +0530,
0.4,400.0,unexp,54,6,4,space,0.09166220000042813,None,,1,[0.3014733000018168],[0.30148280000139493],4,6,54,1,126.87709600000017,,126.86127920000217,126.87709600000017,127.86007240000254,127.86007240000254,127.87772150000092,127.96063940000022,space,0.09166220000042813,None,127.96127460000207,128.36051726666872,128.67538989999957,128.65620040000067,128.65675249999913,128.67538989999957,128.67538989999957,128.67538989999957,128.97717019999982,,1,[0.3014733000018168],[0.30148280000139493],PARTICIPANT_,001,2025-11-13_18h12.28.392,Intentional Binding_exp,,2025.1.1,60.83320811735984,2025-11-13 18h12.48.323899 +0530,
0.4,1000.0,exp,55,7,4,space,0.17848249999951804,None,,1,[0.3515205000003334],[0.3515292000010959],4,7,55,7,128.9936716000011,,128.97741440000027,128.9936716000011,129.9765378000011,129.9765378000011,129.99402290000216,130.16147420000198,space,0.17848249999951804,None,130.16226160000224,130.57632456666786,130.89158429999952,130.87261760000183,130.87320720000207,130.89158429999952,130.89158429999952,130.89158429999952,131.24340819999998,,1,[0.3515205000003334],[0.3515292000010959],PARTICIPANT_,001,2025-11-13_18h12.28.392,Intentional Binding_exp,,2025.1.1,60.83320811735984,2025-11-13 18h12.48.323899 +0530,
0.4,1000.0,exp,56,8,4,space,0.2887102999993658,None,,1,[0.28385599999819533],[0.2838711999975203],4,8,56,10,131.26066609999907,,131.24365410000246,131.26066609999907,132.2443858000006,132.2443858000006,132.26064110000152,132.54321650000202,space,0.2887102999993658,None,132.54415960000188,132.94282506666812,133.2757727999997,133.24425960000008,133.24479930000234,133.2757727999997,133.2757727999997,133.2757727999997,133.56015440000192,,1,[0.28385599999819533],[0.2838711999975203],PARTICIPANT_,001,2025-11-13_18h12.28.392,Intentional Binding_exp,,2025.1.1,60.83320811735984,2025-11-13 18h12.48.323899 +0530,
0.4,1000.0,exp,57,9,4,space,0.5706697999994503,None,,1,[0.35059019999971497],[0.350598799999716],4,9,57,4,133.57606830000077,,133.56050999999934,133.57606830000077,134.5588398,134.5588398,134.57615310000256,135.143391900001,space,0.5706697999994503,None,135.14404450000075,135.55878126666747,135.87524470000062,135.85751990000063,135.85789220000152,135.87524470000062,135.87524470000062,135.87524470000062,136.22613590000037,,1,[0.35059019999971497],[0.350598799999716],PARTICIPANT_,001,2025-11-13_18h12.28.392,Intentional Binding_exp,,2025.1.1,60.83320811735984,2025-11-13 18h12.48.323899 +0530,
0.7,400.0,unexp,58,10,4,space,1.4053134999994654,None,,1,[0.20142350000242004],[0.20143230000030599],4,10,58,2,136.24328160000005,,136.22639530000015,136.24328160000005,137.2258380000021,137.2258380000021,137.24278070000219,138.6442164,space,1.4053134999994654,None,138.64493620000212,139.36059326666899,139.69109300000127,139.65918320000128,139.6597748000022,139.69109300000127,139.69109300000127,139.69109300000127,139.89282789999925,,1,[0.20142350000242004],[0.20143230000030599],PARTICIPANT_,001,2025-11-13_18h12.28.392,Intentional Binding_exp,,2025.1.1,60.83320811735984,2025-11-13 18h12.48.323899 +0530,
0.1,1000.0,exp,59,11,4,space,0.11617029999979422,None,,1,[0.9008192000001145],[0.9008275000014692],4,11,59,6,139.9088957999993,,139.89307570000165,139.9088957999993,140.90890349999972,140.90890349999972,140.90890349999972,141.0266370999998,space,0.11617029999979422,None,141.0274922000026,141.1418571666657,141.4751608000006,141.44604090000212,141.44649589999972,141.4751608000006,141.4751608000006,141.4751608000006,142.37631130000227,,1,[0.9008192000001145],[0.9008275000014692],PARTICIPANT_,001,2025-11-13_18h12.28.392,Intentional Binding_exp,,2025.1.1,60.83320811735984,2025-11-13 18h12.48.323899 +0530,
0.1,1000.0,exp,60,0,5,space,0.09038509999663802,None,,1,[0.41798129999733646],[0.41799750000063796],5,0,60,3,142.3917032999998,,142.37655970000196,142.3917032999998,143.39282380000077,143.39282380000077,143.39282380000077,143.49198180000167,space,0.09038509999663802,None,143.4925574000008,143.59155346666765,143.90785840000171,143.88771020000058,143.8881203000019,143.90785840000171,143.90785840000171,143.90785840000171,144.3263373000009,,1,[0.41798129999733646],[0.41799750000063796],PARTICIPANT_,001,2025-11-13_18h12.28.392,Intentional Binding_exp,,2025.1.1,60.83320811735984,2025-11-13 18h12.48.323899 +0530,
0.1,400.0,unexp,61,1,5,space,0.2202121000009356,None,,1,[0.8345853000028001],[0.834600500002125],5,1,61,0,144.3424856999991,,144.32672690000254,144.3424856999991,145.32748640000136,145.32748640000136,145.34351700000116,145.55859110000165,space,0.2202121000009356,None,145.55928810000114,145.65901236666858,145.9744181999995,145.9566158000016,145.9570242000009,145.9744181999995,145.9744181999995,145.9744181999995,146.80949429999964,,1,[0.8345853000028001],[0.834600500002125],PARTICIPANT_,001,2025-11-13_18h12.28.392,Intentional Binding_exp,,2025.1.1,60.83320811735984,2025-11-13 18h12.48.323899 +0530,
0.7,1000.0,exp,62,2,5,space,1.1691891999980726,None,,1,[0.15054840000084369],[0.15055730000312906],5,2,62,11,146.82467140000153,,146.8097383000022,146.82467140000153,147.82455459999983,147.82455459999983,147.82455459999983,149.00874970000223,space,1.1691891999980726,None,149.00939500000095,149.70853526666568,150.0404849000006,150.01185610000175,150.0122446000023,150.0404849000006,150.0404849000006,150.0404849000006,150.19136369999978,,1,[0.15054840000084369],[0.15055730000312906],PARTICIPANT_,001,2025-11-13_18h12.28.392,Intentional Binding_exp,,2025.1.1,60.83320811735984,2025-11-13 18h12.48.323899 +0530,
0.4,1000.0,exp,63,3,5,space,0.9305386999985785,None,,1,[0.36763969999810797],[0.36765269999887096],5,3,63,4,150.20778530000098,,150.19166980000227,150.20778530000098,151.19106210000245,151.19106210000245,151.20819130000018,152.12568979999924,space,0.9305386999985785,None,152.1263089999993,152.52487306666833,152.8400298000015,152.82002600000123,152.82042659999934,152.8400298000015,152.8400298000015,152.8400298000015,153.20807240000067,,1,[0.36763969999810797],[0.36765269999887096],PARTICIPANT_,001,2025-11-13_18h12.28.392,Intentional Binding_exp,,2025.1.1,60.83320811735984,2025-11-13 18h12.48.323899 +0530,
0.7,1000.0,exp,64,4,5,space,0.004223300002195174,None, ,1,[1.952056599999196],[1.9520645000011427],5,4,64,5,153.2251666000011,,153.20841040000232,153.2251666000011,154.2075936000001,154.2075936000001,154.2243441999999,154.22487100000217,space,0.004223300002195174,None,154.22578430000067,154.92503506666642,155.2560298999997,155.2266395000006,155.22704290000183,155.2560298999997,155.2560298999997,155.2560298999997,157.2083930000008, ,1,[1.952056599999196],[1.9520645000011427],PARTICIPANT_,001,2025-11-13_18h12.28.392,Intentional Binding_exp,,2025.1.1,60.83320811735984,2025-11-13 18h12.48.323899 +0530,
0.4,400.0,unexp,65,5,5,space,0.27706339999713236,None,,1,[0.4155512999968778],[0.41556279999713297],5,5,65,1,157.2247191000024,,157.20862800000032,157.2247191000024,158.2233355999997,158.2233355999997,158.2400794999994,158.5073878000003,space,0.27706339999713236,None,158.50825880000048,158.90760746666663,159.22409990000233,159.20887810000204,159.20951960000093,159.22409990000233,159.22409990000233,159.22409990000233,159.64008060000197,,1,[0.4155512999968778],[0.41556279999713297],PARTICIPANT_,001,2025-11-13_18h12.28.392,Intentional Binding_exp,,2025.1.1,60.83320811735984,2025-11-13 18h12.48.323899 +0530,
0.7,1000.0,exp,66,6,5,space,0.23882890000095358,None,,1,[0.16868260000046575],[0.1686907000002975],5,6,66,8,159.65702480000255,,159.6403487000025,159.65702480000255,160.6399401000017,160.6399401000017,160.65764409999974,160.89060430000245,space,0.23882890000095358,None,160.89124300000185,161.59005456666662,161.9057255000007,161.88672900000165,161.88730420000138,161.9057255000007,161.9057255000007,161.9057255000007,162.07470390000162,,1,[0.16868260000046575],[0.1686907000002975],PARTICIPANT_,001,2025-11-13_18h12.28.392,Intentional Binding_exp,,2025.1.1,60.83320811735984,2025-11-13 18h12.48.323899 +0530,
0.4,1000.0,exp,67,7,5,space,0.2683928000005835,None,,1,[0.302489699999569],[0.3025057000013476],5,7,67,7,162.0901440000016,,162.0749777000019,162.0901440000016,163.09056409999903,163.09056409999903,163.09056409999903,163.37383509999927,space,0.2683928000005835,None,163.37549910000234,163.7731958666666,164.0883885000003,164.07263140000214,164.0730098999993,164.0883885000003,164.0883885000003,164.0883885000003,164.3913837,,1,[0.302489699999569],[0.3025057000013476],PARTICIPANT_,001,2025-11-13_18h12.28.392,Intentional Binding_exp,,2025.1.1,60.83320811735984,2025-11-13 18h12.48.323899 +0530,
0.4,1000.0,exp,68,8,5,space,0.04458439999871189,None,,1,[0.3012678999984928],[0.3012767000000167],5,8,68,10,164.40613920000033,,164.39163420000114,164.40613920000033,165.4065006000019,165.4065006000019,165.4065006000019,165.45665949999966,space,0.04458439999871189,None,165.4574797000023,165.85659306666665,166.1714553999991,166.1528259000006,166.15328020000015,166.1714553999991,166.1714553999991,166.1714553999991,166.47303530000136,,1,[0.3012678999984928],[0.3012767000000167],PARTICIPANT_,001,2025-11-13_18h12.28.392,Intentional Binding_exp,,2025.1.1,60.83320811735984,2025-11-13 18h12.48.323899 +0530,
0.1,1000.0,exp,69,9,5,space,0.08858710000276915,None,,1,[0.8014007999991009],[0.8014093000019784],5,9,69,6,166.48947860000044,,166.47327450000012,166.48947860000044,167.4727348000015,167.4727348000015,167.48969760000182,167.57336209999994,space,0.08858710000276915,None,167.57398990000002,167.67307056666712,168.0057826000011,167.97617710000122,167.97656170000118,168.0057826000011,168.0057826000011,168.0057826000011,168.80750230000194,,1,[0.8014007999991009],[0.8014093000019784],PARTICIPANT_,001,2025-11-13_18h12.28.392,Intentional Binding_exp,,2025.1.1,60.83320811735984,2025-11-13 18h12.48.323899 +0530,
0.7,400.0,unexp,70,10,5,space,0.3375938000026508,None,,1,[0.16663590000098338],[0.1666442999994615],5,10,70,2,168.8228698999992,,168.80775100000028,168.8228698999992,169.82254530000137,169.82254530000137,169.82254530000137,170.17616289999933,space,0.3375938000026508,None,170.17712360000223,170.88949776666803,171.20606029999908,171.18739669999923,171.18777090000003,171.20606029999908,171.20606029999908,171.20606029999908,171.37304330000188,,1,[0.16663590000098338],[0.1666442999994615],PARTICIPANT_,001,2025-11-13_18h12.28.392,Intentional Binding_exp,,2025.1.1,60.83320811735984,2025-11-13 18h12.48.323899 +0530,
0.1,1000.0,exp,71,11,5,space,0.16570409999985714,None,,1,[0.534046999997372],[0.5340556999981345],5,11,71,9,171.3895061000003,,171.37329300000056,171.3895061000003,172.38874380000198,172.38874380000198,172.38874380000198,172.55600520000007,space,0.16570409999985714,None,172.5567293000022,172.672576666668,172.98841190000167,172.96880840000085,172.9692470000009,172.98841190000167,172.98841190000167,172.98841190000167,173.52276730000085,,1,[0.534046999997372],[0.5340556999981345],PARTICIPANT_,001,2025-11-13_18h12.28.392,Intentional Binding_exp,,2025.1.1,60.83320811735984,2025-11-13 18h12.48.323899 +0530,
0.7,400.0,unexp,72,0,6,space,0.2556691999998293,None,,1,[0.11875739999959478],[0.1187659999995958],6,0,72,2,173.53896739999982,,173.52301060000173,173.53896739999982,174.52297679999901,174.52297679999901,174.5390542999994,174.78867349999928,space,0.2556691999998293,None,174.78929860000062,175.4885925666679,175.80443319999904,175.78814430000057,175.78851869999926,175.80443319999904,175.80443319999904,175.80443319999904,175.92353100000037,,1,[0.11875739999959478],[0.1187659999995958],PARTICIPANT_,001,2025-11-13_18h12.28.392,Intentional Binding_exp,,2025.1.1,60.83320811735984,2025-11-13 18h12.48.323899 +0530,
0.4,1000.0,exp,73,1,6,space,0.1658172999996168,None,,1,[0.28600120000191964],[0.28600939999887487],6,1,73,10,175.9391413000012,,175.9237874999999,175.9391413000012,176.93818069999907,176.93818069999907,176.95550790000198,177.1056850999994,space,0.1658172999996168,None,177.10633230000167,177.50493376666807,177.8199725000013,177.8076613000012,177.80805020000116,177.8199725000013,177.8199725000013,177.8199725000013,178.10629650000192,,1,[0.28600120000191964],[0.28600939999887487],PARTICIPANT_,001,2025-11-13_18h12.28.392,Intentional Binding_exp,,2025.1.1,60.83320811735984,2025-11-13 18h12.48.323899 +0530,
0.4,1000.0,exp,74,2,6,space,0.4060529999987921,None,,1,[0.20125520000146935],[0.20126370000070892],6,2,74,7,178.12209070000245,,178.10655110000152,178.12209070000245,179.1214927000001,179.1214927000001,179.1214927000001,179.5390389000022,space,0.4060529999987921,None,179.539639300001,179.9550354666683,180.27132260000144,180.25155730000188,180.25198330000057,180.27132260000144,180.27132260000144,180.27132260000144,180.47288680000202,,1,[0.20125520000146935],[0.20126370000070892],PARTICIPANT_,001,2025-11-13_18h12.28.392,Intentional Binding_exp,,2025.1.1,60.83320811735984,2025-11-13 18h12.48.323899 +0530,
0.1,400.0,unexp,75,3,6,space,0.2404701000014029,None,,1,[0.5182717999996385],[0.5182807000019238],6,3,75,0,180.48834100000022,,180.47314310000002,180.48834100000022,181.48785110000244,181.48785110000244,181.48785110000244,181.7385420999999,space,0.2404701000014029,None,181.73912550000023,181.83829686666675,182.1534352000017,182.13778710000042,182.1381751000008,182.1534352000017,182.1534352000017,182.1534352000017,182.6720325999995,,1,[0.5182717999996385],[0.5182807000019238],PARTICIPANT_,001,2025-11-13_18h12.28.392,Intentional Binding_exp,,2025.1.1,60.83320811735984,2025-11-13 18h12.48.323899 +0530,
0.7,1000.0,exp,76,4,6,space,0.656256400001439,None,,1,[0.43507279999903403],[0.4350811000003887],6,4,76,5,182.6883091000018,,182.6722821000003,182.6883091000018,183.67140669999935,183.67140669999935,183.6880452000005,184.33864249999897,space,0.656256400001439,None,184.33931230000235,185.03789366666777,185.37032589999944,185.34212979999938,185.34252710000146,185.37032589999944,185.37032589999944,185.37032589999944,185.80571100000088,,1,[0.43507279999903403],[0.4350811000003887],PARTICIPANT_,001,2025-11-13_18h12.28.392,Intentional Binding_exp,,2025.1.1,60.83320811735984,2025-11-13 18h12.48.323899 +0530,
0.4,1000.0,exp,77,5,6,space,0.6951599000021815,None,,1,[0.48539009999876725],[0.48539850000088336],6,5,77,4,185.8218280000001,,185.80597760000092,185.8218280000001,186.82101340000008,186.82101340000008,186.82101340000008,187.523490399999,space,0.6951599000021815,None,187.52445060000173,187.93756086666716,188.26969689999896,188.24243790000037,188.24281070000143,188.26969689999896,188.26969689999896,188.26969689999896,188.755383300002,,1,[0.48539009999876725],[0.48539850000088336],PARTICIPANT_,001,2025-11-13_18h12.28.392,Intentional Binding_exp,,2025.1.1,60.83320811735984,2025-11-13 18h12.48.323899 +0530,
0.1,1000.0,exp,78,6,6,space,0.2516263000034087,None, ,1,[1.4519671000016388],[1.4519753999993554],6,6,78,6,188.77000110000154,,188.75563300000067,188.77000110000154,189.76991719999933,189.76991719999933,189.76991719999933,190.03709069999968,space,0.2516263000034087,None,190.03775949999908,190.13757346666924,190.4524483000023,190.43778849999944,190.43816750000042,190.4524483000023,190.4524483000023,190.4524483000023,191.9047126000005, ,1,[1.4519671000016388],[1.4519753999993554],PARTICIPANT_,001,2025-11-13_18h12.28.392,Intentional Binding_exp,,2025.1.1,60.83320811735984,2025-11-13 18h12.48.323899 +0530,
0.7,1000.0,exp,79,7,6,space,0.005624699999316363,None,,1,[0.05042609999873093],[0.050437500001862645],6,7,79,11,191.9203290000005,,191.90496020000137,191.9203290000005,192.92088599999988,192.92088599999988,192.92088599999988,192.93784059999962,space,0.005624699999316363,None,192.93841579999935,193.64009296666725,193.96914870000182,193.94171049999932,193.942116000002,193.96914870000182,193.96914870000182,193.96914870000182,194.02000029999908,,1,[0.05042609999873093],[0.050437500001862645],PARTICIPANT_,001,2025-11-13_18h12.28.392,Intentional Binding_exp,,2025.1.1,60.83320811735984,2025-11-13 18h12.48.323899 +0530,
0.1,1000.0,exp,80,8,6,space,0.1589996999973664,None,,1,[0.5515512999991188],[0.5515630999980203],6,8,80,9,194.0369864000022,,194.02028070000233,194.0369864000022,195.01982490000228,195.01982490000228,195.0372227000007,195.1909839,space,0.1589996999973664,None,195.19197840000197,195.30332716666842,195.61862370000017,195.60324540000147,195.60383250000086,195.61862370000017,195.61862370000017,195.61862370000017,196.1705347999996,,1,[0.5515512999991188],[0.5515630999980203],PARTICIPANT_,001,2025-11-13_18h12.28.392,Intentional Binding_exp,,2025.1.1,60.83320811735984,2025-11-13 18h12.48.323899 +0530,
0.1,1000.0,exp,81,9,6,space,0.36175860000003013,None,            ,1,[3.9174874999989697],[3.91749659999914],6,9,81,3,196.18666089999897,,196.1707748000008,196.18666089999897,197.1694094000013,197.1694094000013,197.18646090000038,197.53749660000176,space,0.36175860000003013,None,197.5385234000023,197.637305966666,197.95236990000194,197.9390929000001,197.94027099999948,197.95236990000194,197.95236990000194,197.95236990000194,201.87023369999952,            ,1,[3.9174874999989697],[3.91749659999914],PARTICIPANT_,001,2025-11-13_18h12.28.392,Intentional Binding_exp,,2025.1.1,60.83320811735984,2025-11-13 18h12.48.323899 +0530,
0.7,1000.0,exp,82,10,6,space,0.27486059999864665,None, ,1,[1.2180874000005133],[1.218101200000092],6,10,82,8,201.8861633000015,,201.87048250000225,201.8861633000015,202.88538189999963,202.88538189999963,202.88538189999963,203.1693290000003,space,0.27486059999864665,None,203.170208800002,203.8696839666666,204.18486290000146,204.16564130000188,204.1662596999995,204.18486290000146,204.18486290000146,204.18486290000146,205.40339390000008, ,1,[1.2180874000005133],[1.218101200000092],PARTICIPANT_,001,2025-11-13_18h12.28.392,Intentional Binding_exp,,2025.1.1,60.83320811735984,2025-11-13 18h12.48.323899 +0530,
0.4,400.0,unexp,83,11,6,space,0.18920149999757996,None,,1,[0.23635960000319756],[0.23636830000032205],6,11,83,1,205.4190321999995,,205.40364000000045,205.4190321999995,206.41977380000026,206.41977380000026,206.41977380000026,206.61960159999944,space,0.18920149999757996,None,206.62017560000095,207.0360277666662,207.35043640000004,207.33759439999994,207.33796839999923,207.35043640000004,207.35043640000004,207.35043640000004,207.58711630000107,,1,[0.23635960000319756],[0.23636830000032205],PARTICIPANT_,001,2025-11-13_18h12.28.392,Intentional Binding_exp,,2025.1.1,60.83320811735984,2025-11-13 18h12.48.323899 +0530,
0.7,1000.0,exp,84,0,7,space,0.017709199997625547,None,,1,[0.032369000000471715],[0.032378400002926355],7,0,84,11,207.60213660000227,,207.58740989999933,207.60213660000227,208.60153450000143,208.60153450000143,208.60153450000143,208.61996310000177,space,0.017709199997625547,None,208.62057130000176,209.31906476666725,209.65184290000252,209.61985920000006,209.6202560999991,209.65184290000252,209.65184290000252,209.65184290000252,209.68451579999964,,1,[0.032369000000471715],[0.032378400002926355],PARTICIPANT_,001,2025-11-13_18h12.28.392,Intentional Binding_exp,,2025.1.1,60.83320811735984,2025-11-13 18h12.48.323899 +0530,
0.4,1000.0,exp,85,1,7,space,0.0911017999969772,None,,1,[0.23416940000242903],[0.23418350000065402],7,1,85,7,209.70265980000113,,209.68476890000238,209.70265980000113,210.6849977999991,210.6849977999991,210.70208900000216,210.7853384000009,space,0.0911017999969772,None,210.786042300002,211.18479816666903,211.5010198000018,211.48405080000157,211.48444540000128,211.5010198000018,211.5010198000018,211.5010198000018,211.7356409999993,,1,[0.23416940000242903],[0.23418350000065402],PARTICIPANT_,001,2025-11-13_18h12.28.392,Intentional Binding_exp,,2025.1.1,60.83320811735984,2025-11-13 18h12.48.323899 +0530,
0.1,1000.0,exp,86,2,7,space,0.16117189999931725,None,,1,[0.4837691000029736],[0.4837786000025517],7,2,86,6,211.75242050000088,,211.73589690000153,211.75242050000088,212.73486480000065,212.73486480000065,212.75142010000127,212.90205630000128,space,0.16117189999931725,None,212.90263550000236,213.01838776666798,213.35146610000083,213.32134550000046,213.32172139999966,213.35146610000083,213.35146610000083,213.35146610000083,213.83557400000063,,1,[0.4837691000029736],[0.4837786000025517],PARTICIPANT_,001,2025-11-13_18h12.28.392,Intentional Binding_exp,,2025.1.1,60.83320811735984,2025-11-13 18h12.48.323899 +0530,
0.7,1000.0,exp,87,3,7,space,0.3473032999972929,None,         ,1,[7.0515236999999615],[7.051532399997086],7,3,87,5,213.85111959999995,,213.8358257,213.85111959999995,214.83470429999943,214.83470429999943,214.8513180000009,215.18545480000103,space,0.3473032999972929,None,215.18603910000093,215.9009475666683,216.21678950000205,216.19946530000016,216.20073570000022,216.21678950000205,216.21678950000205,216.21678950000205,223.2686419999991,         ,1,[7.0515236999999615],[7.051532399997086],PARTICIPANT_,001,2025-11-13_18h12.28.392,Intentional Binding_exp,,2025.1.1,60.83320811735984,2025-11-13 18h12.48.323899 +0530,
0.4,400.0,unexp,88,4,7,space,0.3770455000012589,None,,1,[0.301382100002229],[0.30139430000053835],7,4,88,1,223.28364650000003,,223.2689121000003,223.28364650000003,224.2848163000017,224.2848163000017,224.2848163000017,224.66704930000196,space,0.3770455000012589,None,224.66762369999924,225.06676816666757,225.38310439999987,225.36524540000028,225.36562219999905,225.38310439999987,225.38310439999987,225.38310439999987,225.68488660000003,,1,[0.301382100002229],[0.30139430000053835],PARTICIPANT_,001,2025-11-13_18h12.28.392,Intentional Binding_exp,,2025.1.1,60.83320811735984,2025-11-13 18h12.48.323899 +0530,
0.7,400.0,unexp,89,5,7,space,0.06643560000156867,None,,1,[0.10074170000007143],[0.10075059999871883],7,5,89,2,225.70058620000054,,225.6851346000003,225.70058620000054,226.70030360000237,226.70030360000237,226.70030360000237,226.76742790000208,space,0.06643560000156867,None,226.76811480000106,227.48367156666816,227.79896780000126,227.78330629999982,227.78367770000114,227.79896780000126,227.79896780000126,227.79896780000126,227.9000522000024,,1,[0.10074170000007143],[0.10075059999871883],PARTICIPANT_,001,2025-11-13_18h12.28.392,Intentional Binding_exp,,2025.1.1,60.83320811735984,2025-11-13 18h12.48.323899 +0530,
0.1,1000.0,exp,90,6,7,space,0.11156670000127633,None,,1,[0.4522133999998914],[0.4522270999987086],7,6,90,9,227.91632559999925,,227.90029689999938,227.91632559999925,228.89989210000203,228.89989210000203,228.9168807999995,229.0174896000026,space,0.11156670000127633,None,229.01805930000046,229.11728186666758,229.4320176000001,229.4142501000024,229.41465230000176,229.4320176000001,229.4320176000001,229.4320176000001,229.88463570000022,,1,[0.4522133999998914],[0.4522270999987086],PARTICIPANT_,001,2025-11-13_18h12.28.392,Intentional Binding_exp,,2025.1.1,60.83320811735984,2025-11-13 18h12.48.323899 +0530,
0.7,1000.0,exp,91,7,7,space,0.15588560000105645,None,,1,[0.1319359999979497],[0.13194449999718927],7,7,91,8,229.8996886999994,,229.8849059000022,229.8996886999994,230.88300390000222,230.88300390000222,230.90026170000056,231.05013180000242,space,0.15588560000105645,None,231.05078660000072,231.75017246666565,232.0845999000012,232.0534004000001,232.0537828000015,232.0845999000012,232.0845999000012,232.0845999000012,232.21686780000164,,1,[0.1319359999979497],[0.13194449999718927],PARTICIPANT_,001,2025-11-13_18h12.28.392,Intentional Binding_exp,,2025.1.1,60.83320811735984,2025-11-13 18h12.48.323899 +0530,
0.4,1000.0,exp,92,8,7,space,0.12996670000211452,None,,1,[0.3173892999984673],[0.3173998999991454],7,8,92,10,232.23343730000124,,232.21713450000243,232.23343730000124,233.23240290000103,233.23240290000103,233.23240290000103,233.36694669999997,space,0.12996670000211452,None,233.3675199999998,233.76731166666676,234.09886290000213,234.06702430000223,234.067554199999,234.09886290000213,234.09886290000213,234.09886290000213,234.41665310000099,,1,[0.3173892999984673],[0.3173998999991454],PARTICIPANT_,001,2025-11-13_18h12.28.392,Intentional Binding_exp,,2025.1.1,60.83320811735984,2025-11-13 18h12.48.323899 +0530,
0.1,1000.0,exp,93,9,7,space,0.03834379999898374,None,,1,[0.48477749999801745],[0.48479089999818825],7,9,93,3,234.4322398000004,,234.41690910000034,234.4322398000004,235.41586219999954,235.41586219999954,235.43302630000107,235.46665700000085,space,0.03834379999898374,None,235.4673040000016,235.5666590666663,235.8978446000001,235.86898629999996,235.8694785000007,235.8978446000001,235.8978446000001,235.8978446000001,236.38301970000248,,1,[0.48477749999801745],[0.48479089999818825],PARTICIPANT_,001,2025-11-13_18h12.28.392,Intentional Binding_exp,,2025.1.1,60.83320811735984,2025-11-13 18h12.48.323899 +0530,
0.1,400.0,unexp,94,10,7,space,1.1050003999989713,None,,1,[0.48613420000037877],[0.48614290000114124],7,10,94,0,236.39882610000132,,236.38328430000183,236.39882610000132,237.38214209999933,237.38214209999933,237.39897140000176,238.50246460000199,space,1.1050003999989713,None,238.50337000000218,238.61884286666853,238.94745540000076,238.92494830000214,238.9253408000004,238.94745540000076,238.94745540000076,238.94745540000076,239.43389050000042,,1,[0.48613420000037877],[0.48614290000114124],PARTICIPANT_,001,2025-11-13_18h12.28.392,Intentional Binding_exp,,2025.1.1,60.83320811735984,2025-11-13 18h12.48.323899 +0530,
0.4,1000.0,exp,95,11,7,space,0.07454689999940456,None,,1,[0.2677470999988145],[0.26775610000186134],7,11,95,4,239.44898309999917,,239.4341263000024,239.44898309999917,240.44845859999987,240.44845859999987,240.44845859999987,240.53272560000187,space,0.07454689999940456,None,240.53361120000045,240.93265786666623,241.24758780000047,241.2319712999997,241.23236180000094,241.24758780000047,241.24758780000047,241.24758780000047,241.51564100000178,,1,[0.2677470999988145],[0.26775610000186134],PARTICIPANT_,001,2025-11-13_18h12.28.392,Intentional Binding_exp,,2025.1.1,60.83320811735984,2025-11-13 18h12.48.323899 +0530,
0.7,400.0,unexp,96,0,8,space,0.040113600000040606,None,,1,[0.11797970000043279],[0.11798980000094161],8,0,96,2,241.53181029999905,,241.51588550000088,241.53181029999905,242.5153425999997,242.5153425999997,242.53202489999967,242.56547649999993,space,0.040113600000040606,None,242.56612880000102,243.26499056666606,243.5805588000003,243.56013390000226,243.56065990000207,243.5805588000003,243.5805588000003,243.5805588000003,243.69888510000237,,1,[0.11797970000043279],[0.11798980000094161],PARTICIPANT_,001,2025-11-13_18h12.28.392,Intentional Binding_exp,,2025.1.1,60.83320811735984,2025-11-13 18h12.48.323899 +0530,
0.4,400.0,unexp,97,1,8,space,0.22519739999916055,None,,1,[0.2688153999988572],[0.2688261999974202],8,1,97,1,243.71466670000154,,243.6991287000019,243.71466670000154,244.69815250000102,244.69815250000102,244.71470229999977,244.9323781000021,space,0.22519739999916055,None,244.93332519999967,245.34840356666635,245.66358350000155,245.64507819999926,245.64571699999942,245.66358350000155,245.66358350000155,245.66358350000155,245.93281900000147,,1,[0.2688153999988572],[0.2688261999974202],PARTICIPANT_,001,2025-11-13_18h12.28.392,Intentional Binding_exp,,2025.1.1,60.83320811735984,2025-11-13 18h12.48.323899 +0530,
0.7,1000.0,exp,98,2,8,space,0.11753610000232584,None,,1,[0.10088710000127321],[0.1009035999995831],8,2,98,5,245.94763729999977,,245.93306930000108,245.94763729999977,246.94778339999903,246.94778339999903,246.94778339999903,247.08222540000133,space,0.11753610000232584,None,247.08316840000043,247.79746366666612,248.13103120000233,248.09664220000195,248.0971735000021,248.13103120000233,248.13103120000233,248.13103120000233,248.23250200000257,,1,[0.10088710000127321],[0.1009035999995831],PARTICIPANT_,001,2025-11-13_18h12.28.392,Intentional Binding_exp,,2025.1.1,60.83320811735984,2025-11-13 18h12.48.323899 +0530,
0.7,1000.0,exp,99,3,8,space,0.19176410000000033,None,,1,[0.06941200000073877],[0.06942079999862472],8,3,99,8,248.24791109999933,,248.2327719999994,248.24791109999933,249.23260400000072,249.23260400000072,249.24832969999989,249.43436470000233,space,0.19176410000000033,None,249.43535540000084,250.14756176666586,250.4798570999992,250.45358789999955,250.45396230000188,250.4798570999992,250.4798570999992,250.4798570999992,250.54957470000227,,1,[0.06941200000073877],[0.06942079999862472],PARTICIPANT_,001,2025-11-13_18h12.28.392,Intentional Binding_exp,,2025.1.1,60.83320811735984,2025-11-13 18h12.48.323899 +0530,
0.1,400.0,unexp,100,4,8,space,0.23948640000162413,None,,1,[0.39975809999668854],[0.39976669999668957],8,4,100,0,250.56443220000074,,250.54981780000162,250.56443220000074,251.5638680000011,251.5638680000011,251.5638680000011,251.81528249999974,space,0.23948640000162413,None,251.81616159999976,251.93115186666572,252.2641911999999,252.23354050000125,252.2339635999997,252.2641911999999,252.2641911999999,252.2641911999999,252.66425639999943,,1,[0.39975809999668854],[0.39976669999668957],PARTICIPANT_,001,2025-11-13_18h12.28.392,Intentional Binding_exp,,2025.1.1,60.83320811735984,2025-11-13 18h12.48.323899 +0530,
0.1,1000.0,exp,101,5,8,space,0.015185399999609217,None,,1,[0.49910950000048615],[0.49912570000014966],8,5,101,9,252.68104959999982,,252.6644993000009,252.68104959999982,253.66590410000208,253.66590410000208,253.6803022999993,253.6984536000018,space,0.015185399999609217,None,253.69902469999943,253.7978037666692,254.13089120000222,254.10100500000044,254.101402100001,254.13089120000222,254.13089120000222,254.13089120000222,254.63053020000007,,1,[0.49910950000048615],[0.49912570000014966],PARTICIPANT_,001,2025-11-13_18h12.28.392,Intentional Binding_exp,,2025.1.1,60.83320811735984,2025-11-13 18h12.48.323899 +0530,
0.4,1000.0,exp,102,6,8,space,0.0024157000007107854,None,,1,[0.23455029999968247],[0.23455850000027567],8,6,102,4,254.64693800000168,,254.63092519999918,254.64693800000168,255.63122750000184,255.63122750000184,255.64786200000162,255.64834390000033,space,0.0024157000007107854,None,255.6489188000014,256.0636542666691,256.38021579999986,256.3627106000022,256.3630922000011,256.38021579999986,256.38021579999986,256.38021579999986,256.6150696000004,,1,[0.23455029999968247],[0.23455850000027567],PARTICIPANT_,001,2025-11-13_18h12.28.392,Intentional Binding_exp,,2025.1.1,60.83320811735984,2025-11-13 18h12.48.323899 +0530,
0.4,1000.0,exp,103,7,8,space,0.09510520000185352,None,,1,[0.4674068999993324],[0.4674176000007719],8,7,103,7,256.63085440000214,,256.6153044999992,256.63085440000214,257.6305754999994,257.6305754999994,257.6305754999994,257.7322533000006,space,0.09510520000185352,None,257.73307679999925,258.1473200666662,258.46271590000106,258.44400680000035,258.44444080000176,258.46271590000106,258.46271590000106,258.46271590000106,258.9304747999995,,1,[0.4674068999993324],[0.4674176000007719],PARTICIPANT_,001,2025-11-13_18h12.28.392,Intentional Binding_exp,,2025.1.1,60.83320811735984,2025-11-13 18h12.48.323899 +0530,
0.1,1000.0,exp,104,8,8,space,0.4833485999988625,None,,1,[0.4191078000003472],[0.4191162000024633],8,8,104,3,258.94649539999955,,258.9307324000001,258.94649539999955,259.92993280000155,259.92993280000155,259.9468006999996,260.41494389999934,space,0.4833485999988625,None,260.4157188999998,260.51424326666915,260.8286826000003,260.8093609999996,260.8097932000019,260.8286826000003,260.8286826000003,260.8286826000003,261.2480933000006,,1,[0.4191078000003472],[0.4191162000024633],PARTICIPANT_,001,2025-11-13_18h12.28.392,Intentional Binding_exp,,2025.1.1,60.83320811735984,2025-11-13 18h12.48.323899 +0530,
0.1,1000.0,exp,105,9,8,space,0.09065219999683904,None,,1,[0.517726499998389],[0.5177403999987291],8,9,105,6,261.2630941000025,,261.2483471000014,261.2630941000025,262.2628068000013,262.2628068000013,262.2628068000013,262.36414349999905,space,0.09065219999683904,None,262.3647727999996,262.463348766669,262.77872000000207,262.7602146999998,262.76069629999984,262.77872000000207,262.77872000000207,262.77872000000207,263.29690830000254,,1,[0.517726499998389],[0.5177403999987291],PARTICIPANT_,001,2025-11-13_18h12.28.392,Intentional Binding_exp,,2025.1.1,60.83320811735984,2025-11-13 18h12.48.323899 +0530,
0.7,1000.0,exp,106,10,8,space,0.03286120000120718,None,,1,[0.13320029999886174],[0.13321060000089346],8,10,106,11,263.3135919000015,,263.29716069999995,263.3135919000015,264.29668110000057,264.29668110000057,264.31288610000047,264.331375400001,space,0.03286120000120718,None,264.3321732000004,265.046098666666,265.3619555000005,265.3427937000015,265.3434336999999,265.3619555000005,265.3619555000005,265.3619555000005,265.49549970000226,,1,[0.13320029999886174],[0.13321060000089346],PARTICIPANT_,001,2025-11-13_18h12.28.392,Intentional Binding_exp,,2025.1.1,60.83320811735984,2025-11-13 18h12.48.323899 +0530,
0.4,1000.0,exp,107,11,8,space,0.17245009999896865,None,,1,[0.21788369999921997],[0.21789539999736007],8,11,107,10,265.51268189999973,,265.49579090000043,265.51268189999973,266.4961524999999,266.4961524999999,266.51249520000056,266.679671599999,space,0.17245009999896865,None,266.6802678999993,267.0797099666672,267.4123705999991,267.38263200000074,267.3830185000006,267.4123705999991,267.4123705999991,267.4123705999991,267.6306355000015,,1,[0.21788369999921997],[0.21789539999736007],PARTICIPANT_,001,2025-11-13_18h12.28.392,Intentional Binding_exp,,2025.1.1,60.83320811735984,2025-11-13 18h12.48.323899 +0530,
0.4,400.0,unexp,108,0,9,space,0.1321280999982264,None,,1,[0.2685691000006045],[0.268577800001367],9,0,108,1,267.646009600001,,267.6309462999998,267.646009600001,268.6455943000001,268.6455943000001,268.6455943000001,268.77962110000226,space,0.1321280999982264,None,268.7803426999999,269.1797318666688,269.49412890000167,269.48190109999996,269.48227690000203,269.49412890000167,269.49412890000167,269.49412890000167,269.7629975000018,,1,[0.2685691000006045],[0.268577800001367],PARTICIPANT_,001,2025-11-13_18h12.28.392,Intentional Binding_exp,,2025.1.1,60.83320811735984,2025-11-13 18h12.48.323899 +0530,
0.7,1000.0,exp,109,1,9,space,0.07130250000045635,None,,1,[0.15126629999940633],[0.15127449999999953],9,1,109,5,269.77962820000175,,269.76328060000014,269.77962820000175,270.7629349000017,270.7629349000017,270.7796187000022,270.8461692000019,space,0.07130250000045635,None,270.84707329999947,271.5453776666657,271.86128950000057,271.84350859999904,271.8438939000007,271.86128950000057,271.86128950000057,271.86128950000057,272.0128833000017,,1,[0.15126629999940633],[0.15127449999999953],PARTICIPANT_,001,2025-11-13_18h12.28.392,Intentional Binding_exp,,2025.1.1,60.83320811735984,2025-11-13 18h12.48.323899 +0530,
0.4,1000.0,exp,110,2,9,space,0.13279569999940577,None,,1,[0.30062550000002375],[0.3006372999989253],9,2,110,10,272.0293163999995,,272.01313180000216,272.0293163999995,273.0118308000019,273.0118308000019,273.0287578000025,273.1456849999995,space,0.13279569999940577,None,273.1465606999991,273.54563196666663,273.86121040000216,273.84676000000036,273.84721609999906,273.86121040000216,273.86121040000216,273.86121040000216,274.16220130000147,,1,[0.30062550000002375],[0.3006372999989253],PARTICIPANT_,001,2025-11-13_18h12.28.392,Intentional Binding_exp,,2025.1.1,60.83320811735984,2025-11-13 18h12.48.323899 +0530,
0.4,1000.0,exp,111,3,9,space,0.0708005000014964,None,,1,[0.23366100000203005],[0.23367549999966286],9,3,111,4,274.17834439999933,,274.16252330000134,274.17834439999933,275.1619939000011,275.1619939000011,275.1784625,275.24533630000224,space,0.0708005000014964,None,275.24594640000214,275.6448835666672,275.9781742000014,275.9481108,275.9485005000024,275.9781742000014,275.9781742000014,275.9781742000014,276.2122793000017,,1,[0.23366100000203005],[0.23367549999966286],PARTICIPANT_,001,2025-11-13_18h12.28.392,Intentional Binding_exp,,2025.1.1,60.83320811735984,2025-11-13 18h12.48.323899 +0530,
0.1,1000.0,exp,112,4,9,space,0.016576500001974637,None,,1,[0.5187846000007994],[0.5187982999996166],9,4,112,3,276.2286047000016,,276.21268000000055,276.2286047000016,277.21163920000254,277.21163920000254,277.22834760000114,277.2287952000006,space,0.016576500001974637,None,277.22936670000126,277.3285074666676,277.6441866000023,277.62925010000254,277.6296628000018,277.6441866000023,277.6441866000023,277.6441866000023,278.16343100000086,,1,[0.5187846000007994],[0.5187982999996166],PARTICIPANT_,001,2025-11-13_18h12.28.392,Intentional Binding_exp,,2025.1.1,60.83320811735984,2025-11-13 18h12.48.323899 +0530,
0.7,1000.0,exp,113,5,9,space,0.5535702999986825,None,,1,[0.1496545000009064],[0.14966410000124597],9,5,113,11,278.17898760000026,,278.16379810000217,278.17898760000026,279.17811770000117,279.17811770000117,279.1951330000011,279.7456553000011,space,0.5535702999986825,None,279.7462613000025,280.4450644666688,280.7777348000018,280.7466753000008,280.7470565000003,280.7777348000018,280.7777348000018,280.7777348000018,280.9277089000025,,1,[0.1496545000009064],[0.14966410000124597],PARTICIPANT_,001,2025-11-13_18h12.28.392,Intentional Binding_exp,,2025.1.1,60.83320811735984,2025-11-13 18h12.48.323899 +0530,
0.1,1000.0,exp,114,6,9,space,0.2558281999990868,None,,1,[0.4849123999993026],[0.4849194999987958],9,6,114,9,280.9447270000019,,280.92795000000115,280.9447270000019,281.92766699999993,281.92766699999993,281.9445759000009,282.19524029999957,space,0.2558281999990868,None,282.19614750000255,282.3109750666665,282.6265983000012,282.6107766000023,282.61121040000216,282.6265983000012,282.6265983000012,282.6265983000012,283.11180980000063,,1,[0.4849123999993026],[0.4849194999987958],PARTICIPANT_,001,2025-11-13_18h12.28.392,Intentional Binding_exp,,2025.1.1,60.83320811735984,2025-11-13 18h12.48.323899 +0530,
0.1,400.0,unexp,115,7,9,space,0.03367179999986547,None,,1,[0.40202339999814285],[0.4020297999995819],9,7,115,0,283.1273164000013,,283.11199710000074,283.1273164000013,284.1108576000006,284.1108576000006,284.12739870000223,284.16193589999966,space,0.03367179999986547,None,284.1624974000006,284.2773408666692,284.59255140000096,284.5739218000017,284.5743446000015,284.59255140000096,284.59255140000096,284.59255140000096,284.9948097000015,,1,[0.40202339999814285],[0.4020297999995819],PARTICIPANT_,001,2025-11-13_18h12.28.392,Intentional Binding_exp,,2025.1.1,60.83320811735984,2025-11-13 18h12.48.323899 +0530,
0.1,1000.0,exp,116,8,9,space,0.388588300000265,None,,1,[0.48493729999972857],[0.4849466999985452],9,8,116,6,285.0106718999996,,284.99498680000033,285.0106718999996,286.0105543999998,286.0105543999998,286.0105543999998,286.4108434000009,space,0.388588300000265,None,286.4119565000001,286.5101712666658,286.825983499999,286.80707320000147,286.80783710000105,286.825983499999,286.825983499999,286.825983499999,287.3112346000016,,1,[0.48493729999972857],[0.4849466999985452],PARTICIPANT_,001,2025-11-13_18h12.28.392,Intentional Binding_exp,,2025.1.1,60.83320811735984,2025-11-13 18h12.48.323899 +0530,
0.7,400.0,unexp,117,9,9,space,0.43819079999957466,None,,1,[0.15305760000046575],[0.1530726000019058],9,9,117,2,287.3263861000014,,287.311439000001,287.3263861000014,288.31027879999965,288.31027879999965,288.32725100000243,288.76044390000243,space,0.43819079999957466,None,288.7609267000007,289.45976346666816,289.7758909000004,289.75868120000086,289.75915349999923,289.7758909000004,289.7758909000004,289.7758909000004,289.92940100000123,,1,[0.15305760000046575],[0.1530726000019058],PARTICIPANT_,001,2025-11-13_18h12.28.392,Intentional Binding_exp,,2025.1.1,60.83320811735984,2025-11-13 18h12.48.323899 +0530,
0.4,1000.0,exp,118,10,9,space,0.15857429999960004,None,,1,[0.24858640000093146],[0.24859270000160905],9,10,118,7,289.94355670000004,,289.92969509999966,289.94355670000004,290.94372040000235,290.94372040000235,290.94372040000235,291.1102549000025,space,0.15857429999960004,None,291.11103530000037,291.5094480666669,291.8293087999991,291.80756060000203,291.8078936999991,291.8293087999991,291.8293087999991,291.8293087999991,292.07818490000136,,1,[0.24858640000093146],[0.24859270000160905],PARTICIPANT_,001,2025-11-13_18h12.28.392,Intentional Binding_exp,,2025.1.1,60.83320811735984,2025-11-13 18h12.48.323899 +0530,
0.7,1000.0,exp,119,11,9,space,0.12933110000085435,None,,1,[0.09966290000011213],[0.09968010000011418],9,11,119,8,292.0934035999999,,292.0783819999997,292.0934035999999,293.0939337000018,293.0939337000018,293.0939337000018,293.2281111000011,space,0.12933110000085435,None,293.2290568999997,293.92727566666895,294.2600609000001,294.2279808000021,294.22837020000225,294.2600609000001,294.2600609000001,294.2600609000001,294.3602161000017,,1,[0.09966290000011213],[0.09968010000011418],PARTICIPANT_,001,2025-11-13_18h12.28.392,Intentional Binding_exp,,2025.1.1,60.83320811735984,2025-11-13 18h12.48.323899 +0530,
0.7,1000.0,exp,120,0,10,space,0.18346269999892684,None,,1,[0.06876370000099996],[0.06877520000125514],10,0,120,8,294.37630940000236,,294.3605105000024,294.37630940000236,295.37902830000166,295.37902830000166,295.37902830000166,295.5640934000003,space,0.18346269999892684,None,295.56511930000124,296.27578886666765,296.5916623000012,296.5776681000025,296.5781458999991,296.5916623000012,296.5916623000012,296.5916623000012,296.66083770000114,,1,[0.06876370000099996],[0.06877520000125514],PARTICIPANT_,001,2025-11-13_18h12.28.392,Intentional Binding_exp,,2025.1.1,60.83320811735984,2025-11-13 18h12.48.323899 +0530,
0.7,1000.0,exp,121,1,10,space,0.061799899998732144,None,,1,[0.08536649999950896],[0.08538140000018757],10,1,121,5,296.67725079999946,,296.66115990000253,296.67725079999946,297.6769892000011,297.6769892000011,297.6939175000007,297.74371450000035,space,0.061799899998732144,None,297.74457489999986,298.4443917666688,298.77498249999917,298.7471833000018,298.74773650000134,298.77498249999917,298.77498249999917,298.77498249999917,298.8608600000007,,1,[0.08536649999950896],[0.08538140000018757],PARTICIPANT_,001,2025-11-13_18h12.28.392,Intentional Binding_exp,,2025.1.1,60.83320811735984,2025-11-13 18h12.48.323899 +0530,
0.7,1000.0,exp,122,2,10,space,0.048054799997771624,None,,1,[0.0690601999995124],[0.06907409999985248],10,2,122,11,298.8759515999991,,298.86112219999995,298.8759515999991,299.8756355000005,299.8756355000005,299.8756355000005,299.9270073000007,space,0.048054799997771624,None,299.9278707000012,300.62657396666714,300.9590038999995,300.92923410000003,300.9296162999999,300.9590038999995,300.9590038999995,300.9590038999995,301.0284492999999,,1,[0.0690601999995124],[0.06907409999985248],PARTICIPANT_,001,2025-11-13_18h12.28.392,Intentional Binding_exp,,2025.1.1,60.83320811735984,2025-11-13 18h12.48.323899 +0530,
0.1,1000.0,exp,123,3,10,space,0.0991805999983626,None,,1,[0.7343460999982199],[0.734356500001013],10,3,123,3,301.04268199999933,,301.02869049999936,301.04268199999933,302.0421165000007,302.0421165000007,302.0421165000007,302.1432640000021,space,0.0991805999983626,None,302.14389700000174,302.2427710666673,302.5584359000022,302.5407535000013,302.5411211999999,302.5584359000022,302.5584359000022,302.5584359000022,303.29307940000217,,1,[0.7343460999982199],[0.734356500001013],PARTICIPANT_,001,2025-11-13_18h12.28.392,Intentional Binding_exp,,2025.1.1,60.83320811735984,2025-11-13 18h12.48.323899 +0530,
0.4,400.0,unexp,124,4,10,space,0.9277723000013793,None,,1,[0.36826290000317385],[0.3682778000002145],10,4,124,1,303.30903110000145,,303.29334440000093,303.30903110000145,304.29241710000133,304.29241710000133,304.3094165000002,305.2268287000006,space,0.9277723000013793,None,305.22783600000184,305.6259161666678,305.94120979999934,305.9225058000011,305.9229785000025,305.94120979999934,305.94120979999934,305.94120979999934,306.3098021000005,,1,[0.36826290000317385],[0.3682778000002145],PARTICIPANT_,001,2025-11-13_18h12.28.392,Intentional Binding_exp,,2025.1.1,60.83320811735984,2025-11-13 18h12.48.323899 +0530,
0.4,1000.0,exp,125,5,10,space,0.48910109999997076,None,,1,[0.36651659999915864],[0.36653080000178306],10,5,125,10,306.3250541000016,,306.31005189999996,306.3250541000016,307.3248330999995,307.3248330999995,307.3248330999995,307.8258664999994,space,0.48910109999997076,None,307.8264918999994,308.24202226666625,308.57573290000073,308.5450474999998,308.54544760000135,308.57573290000073,308.57573290000073,308.57573290000073,308.9426811000012,,1,[0.36651659999915864],[0.36653080000178306],PARTICIPANT_,001,2025-11-13_18h12.28.392,Intentional Binding_exp,,2025.1.1,60.83320811735984,2025-11-13 18h12.48.323899 +0530,
0.1,1000.0,exp,126,6,10,space,0.6921851999977662,None,,1,[0.5493733000002976],[0.5493829000006372],10,6,126,6,308.9595224000004,,308.94293480000124,308.9595224000004,309.94295950000014,309.94295950000014,309.9589445999991,310.6419977000005,space,0.6921851999977662,None,310.64269740000236,310.7580947666686,311.0917171000001,311.0636559000013,311.06402920000255,311.0917171000001,311.0917171000001,311.0917171000001,311.6414246000022,,1,[0.5493733000002976],[0.5493829000006372],PARTICIPANT_,001,2025-11-13_18h12.28.392,Intentional Binding_exp,,2025.1.1,60.83320811735984,2025-11-13 18h12.48.323899 +0530,
0.4,1000.0,exp,127,7,10,space,0.30220870000266586,None,,1,[0.2845166999977664],[0.2845250999998825],10,7,127,4,311.6580212000008,,311.641690299999,311.6580212000008,312.64075740000044,312.64075740000044,312.6577596999996,312.9584532000008,space,0.30220870000266586,None,312.9590695000006,313.35923166666566,313.67410890000247,313.6557915000012,313.65618000000177,313.67410890000247,313.67410890000247,313.67410890000247,313.9589253000013,,1,[0.2845166999977664],[0.2845250999998825],PARTICIPANT_,001,2025-11-13_18h12.28.392,Intentional Binding_exp,,2025.1.1,60.83320811735984,2025-11-13 18h12.48.323899 +0530,
0.1,400.0,unexp,128,8,10,space,0.2754475999972783,None,,1,[0.7688359000021592],[0.7688533000000461],10,8,128,0,313.9751834000017,,313.9591811999999,313.9751834000017,314.9743144000022,314.9743144000022,314.990983300002,315.25775240000075,space,0.2754475999972783,None,315.2583684000019,315.35783366666897,315.69028400000025,315.6591236999993,315.6595058999992,315.69028400000025,315.69028400000025,315.69028400000025,316.45969940000214,,1,[0.7688359000021592],[0.7688533000000461],PARTICIPANT_,001,2025-11-13_18h12.28.392,Intentional Binding_exp,,2025.1.1,60.83320811735984,2025-11-13 18h12.48.323899 +0530,
0.4,1000.0,exp,129,9,10,space,0.33252899999934016,None,,1,[0.3347721999998612],[0.33478029999969294],10,9,129,7,316.47526070000094,,316.46014579999974,316.47526070000094,317.4746692000008,317.4746692000008,317.4910080000009,317.8082123000022,space,0.33252899999934016,None,317.80885350000244,318.2087162666687,318.52313309999954,318.5065276000023,318.5070560999993,318.52313309999954,318.52313309999954,318.52313309999954,318.8582180000012,,1,[0.3347721999998612],[0.33478029999969294],PARTICIPANT_,001,2025-11-13_18h12.28.392,Intentional Binding_exp,,2025.1.1,60.83320811735984,2025-11-13 18h12.48.323899 +0530,
0.7,400.0,unexp,130,10,10,space,0.22833540000283392,None,,1,[0.18436239999937243],[0.18437080000148853],10,10,130,2,318.87418360000083,,318.85847529999955,318.87418360000083,319.8576329999996,319.8576329999996,319.87445610000213,320.0911911000003,space,0.22833540000283392,None,320.09175550000145,320.8070609666686,321.1235345000023,321.1024438000022,321.1029621000016,321.1235345000023,321.1235345000023,321.1235345000023,321.3082125000001,,1,[0.18436239999937243],[0.18437080000148853],PARTICIPANT_,001,2025-11-13_18h12.28.392,Intentional Binding_exp,,2025.1.1,60.83320811735984,2025-11-13 18h12.48.323899 +0530,
0.1,1000.0,exp,131,11,10,space,0.27073790000213194,None,,1,[0.6826962999984971],[0.6827077999987523],10,11,131,9,321.3241142000006,,321.3084654000013,321.3241142000006,322.32331390000036,322.32331390000036,322.32331390000036,322.6072985999999,space,0.27073790000213194,None,322.6079974999993,322.7077960666686,323.0412820999991,323.01146860000154,323.01200940000126,323.0412820999991,323.0412820999991,323.0412820999991,323.7243851000021,,1,[0.6826962999984971],[0.6827077999987523],PARTICIPANT_,001,2025-11-13_18h12.28.392,Intentional Binding_exp,,2025.1.1,60.83320811735984,2025-11-13 18h12.48.323899 +0530,
0.7,1000.0,exp,132,0,11,space,0.17100009999921895,None,,1,[0.1348007000015059],[0.13481049999973038],11,0,132,5,323.74037600000156,,323.7246472000006,323.74037600000156,324.7398874999999,324.7398874999999,324.7398874999999,324.92398310000135,space,0.17100009999921895,None,324.9245857999995,325.6235959666667,325.9391405000024,325.92187019999983,325.9222809999992,325.9391405000024,325.9391405000024,325.9391405000024,326.07425010000225,,1,[0.1348007000015059],[0.13481049999973038],PARTICIPANT_,001,2025-11-13_18h12.28.392,Intentional Binding_exp,,2025.1.1,60.83320811735984,2025-11-13 18h12.48.323899 +0530,
0.1,1000.0,exp,133,1,11,space,0.1937285999993037,None,,1,[0.40173370000047726],[0.4017490000005637],11,1,133,3,326.08959440000035,,326.07449389999965,326.08959440000035,327.08967380000104,327.08967380000104,327.08967380000104,327.29016649999903,space,0.1937285999993037,None,327.29078850000224,327.39034236666726,327.7230961999994,327.69004250000216,327.6904248999999,327.7230961999994,327.7230961999994,327.7230961999994,328.1251835000003,,1,[0.40173370000047726],[0.4017490000005637],PARTICIPANT_,001,2025-11-13_18h12.28.392,Intentional Binding_exp,,2025.1.1,60.83320811735984,2025-11-13 18h12.48.323899 +0530,
0.7,1000.0,exp,134,2,11,space,0.26941010000155075,None,,1,[0.28455810000014026],[0.28456659999937983],11,2,134,8,328.139427099999,,328.1254408999994,328.139427099999,329.13974470000176,329.13974470000176,329.13974470000176,329.4236636000023,space,0.26941010000155075,None,329.4242656999995,330.1229137666671,330.4389016999994,330.42153250000047,330.42191770000136,330.4389016999994,330.4389016999994,330.4389016999994,330.72377250000136,,1,[0.28455810000014026],[0.28456659999937983],PARTICIPANT_,001,2025-11-13_18h12.28.392,Intentional Binding_exp,,2025.1.1,60.83320811735984,2025-11-13 18h12.48.323899 +0530,
0.4,1000.0,exp,135,3,11,space,0.05711599999995087,None,,1,[0.30181500000253436],[0.30182410000270465],11,3,135,4,330.73979340000005,,330.72402689999944,330.73979340000005,331.739261900002,331.739261900002,331.739261900002,331.80616590000136,space,0.05711599999995087,None,331.80681679999907,332.2065086666664,332.52139539999916,332.5053700999997,332.5057401000013,332.52139539999916,332.52139539999916,332.52139539999916,332.823507000001,,1,[0.30181500000253436],[0.30182410000270465],PARTICIPANT_,001,2025-11-13_18h12.28.392,Intentional Binding_exp,,2025.1.1,60.83320811735984,2025-11-13 18h12.48.323899 +0530,
0.1,1000.0,exp,136,4,11,space,0.2595374000011361,None,,1,[0.5311362000029476],[0.5311443000027793],11,4,136,9,332.8396575000006,,332.82374940000227,332.8396575000006,333.82276959999945,333.82276959999945,333.83890959999917,334.0891382000009,space,0.2595374000011361,None,334.0897350000014,334.1898017666683,334.52424600000086,334.4900680999999,334.4906805999999,334.52424600000086,334.52424600000086,334.52424600000086,335.05572360000224,,1,[0.5311362000029476],[0.5311443000027793],PARTICIPANT_,001,2025-11-13_18h12.28.392,Intentional Binding_exp,,2025.1.1,60.83320811735984,2025-11-13 18h12.48.323899 +0530,
0.7,400.0,unexp,137,5,11,space,0.09771869999894989,None,,1,[0.31978979999985313],[0.3197982999990927],11,5,137,2,335.07313599999907,,335.055961500002,335.07313599999907,336.0593871000019,336.0593871000019,336.0758870999998,336.1729106999992,space,0.09771869999894989,None,336.1738340000011,336.8728164666684,337.2040725000006,337.1756067999995,337.17596440000125,337.2040725000006,337.2040725000006,337.2040725000006,337.5242199000022,,1,[0.31978979999985313],[0.3197982999990927],PARTICIPANT_,001,2025-11-13_18h12.28.392,Intentional Binding_exp,,2025.1.1,60.83320811735984,2025-11-13 18h12.48.323899 +0530,
0.4,1000.0,exp,138,6,11,space,0.012363900001219008,None,,1,[0.2671872999999323],[0.26720019999993383],11,6,138,10,337.5395242000013,,337.524472699999,337.5395242000013,338.53895230000126,338.53895230000126,338.53895230000126,338.5561732000024,space,0.012363900001219008,None,338.5567427999995,338.95524086666796,339.28860580000037,339.25716210000246,339.25755109999955,339.28860580000037,339.28860580000037,339.28860580000037,339.5562045000006,,1,[0.2671872999999323],[0.26720019999993383],PARTICIPANT_,001,2025-11-13_18h12.28.392,Intentional Binding_exp,,2025.1.1,60.83320811735984,2025-11-13 18h12.48.323899 +0530,
0.1,1000.0,exp,139,7,11,space,0.19035929999881773,None,,1,[0.4848578999990423],[0.48487769999701413],11,7,139,6,339.5720631000004,,339.5564587000008,339.5720631000004,340.5714775000015,340.5714775000015,340.5714775000015,340.772911,space,0.19035929999881773,None,340.77364410000155,340.8719692666675,341.18730340000184,341.1661666,341.1666516000005,341.18730340000184,341.18730340000184,341.18730340000184,341.67254110000067,,1,[0.4848578999990423],[0.48487769999701413],PARTICIPANT_,001,2025-11-13_18h12.28.392,Intentional Binding_exp,,2025.1.1,60.83320811735984,2025-11-13 18h12.48.323899 +0530,
0.4,1000.0,exp,140,8,11,space,0.061882199999672594,None,,1,[0.16870879999987665],[0.1687171000012313],11,8,140,7,341.6888263000001,,341.6727874999997,341.6888263000001,342.67194179999933,342.67194179999933,342.6883129000016,342.7391208000008,space,0.061882199999672594,None,342.74003820000144,343.138423866669,343.4538547000011,343.43649110000115,343.4368625999996,343.4538547000011,343.4538547000011,343.4538547000011,343.62287800000195,,1,[0.16870879999987665],[0.1687171000012313],PARTICIPANT_,001,2025-11-13_18h12.28.392,Intentional Binding_exp,,2025.1.1,60.83320811735984,2025-11-13 18h12.48.323899 +0530,
0.7,1000.0,exp,141,9,11,space,0.33934920000319835,None,,1,[0.6520014999987325],[0.6520098999972106],11,9,141,11,343.6382379000024,,343.623114500002,343.6382379000024,344.6389111999997,344.6389111999997,344.6389111999997,344.9882835000026,space,0.33934920000319835,None,344.9890822000016,345.68828686666916,346.0039348999999,345.98516270000255,345.98560329999964,346.0039348999999,346.0039348999999,346.0039348999999,346.65625250000085,,1,[0.6520014999987325],[0.6520098999972106],PARTICIPANT_,001,2025-11-13_18h12.28.392,Intentional Binding_exp,,2025.1.1,60.83320811735984,2025-11-13 18h12.48.323899 +0530,
0.4,400.0,unexp,142,10,11,space,0.02450709999902756,None,,1,[0.24964779999936582],[0.24965739999970538],11,10,142,1,346.67071869999927,,346.6565068000018,346.67071869999927,347.67174929999965,347.67174929999965,347.67174929999965,347.7049122000026,space,0.02450709999902756,None,347.7054993999991,348.1058455666682,348.42121849999967,348.406586699999,348.40705940000043,348.42121849999967,348.42121849999967,348.42121849999967,348.67123490000085,,1,[0.24964779999936582],[0.24965739999970538],PARTICIPANT_,001,2025-11-13_18h12.28.392,Intentional Binding_exp,,2025.1.1,60.83320811735984,2025-11-13 18h12.48.323899 +0530,
0.1,400.0,unexp,143,11,11,space,0.14658029999918654,None,,1,[0.40215100000204984],[0.4021600000014587],11,11,143,0,348.68784380000216,,348.67150709999987,348.68784380000216,349.67383340000015,349.67383340000015,349.6903891000002,349.82155630000125,space,0.14658029999918654,None,349.82230490000074,349.9224843666673,350.2530313000025,350.2260924000002,350.22648630000185,350.2530313000025,350.2530313000025,350.2530313000025,350.6555081000006,,1,[0.40215100000204984],[0.4021600000014587],PARTICIPANT_,001,2025-11-13_18h12.28.392,Intentional Binding_exp,,2025.1.1,60.83320811735984,2025-11-13 18h12.48.323899 +0530,
0.7,1000.0,exp,144,0,12,space,0.135249399998429,None,,1,[0.23652210000000196],[0.23653049999848008],12,0,144,11,350.6709937000014,,350.6557575000006,350.6709937000014,351.6548901999995,351.6548901999995,351.6714979000026,351.80424180000045,space,0.135249399998429,None,351.80485150000095,352.503998766668,352.81916320000164,352.80015769999955,352.8005668000005,352.81916320000164,352.81916320000164,352.81916320000164,353.055983000002,,1,[0.23652210000000196],[0.23653049999848008],PARTICIPANT_,001,2025-11-13_18h12.28.392,Intentional Binding_exp,,2025.1.1,60.83320811735984,2025-11-13 18h12.48.323899 +0530,
0.7,400.0,unexp,145,1,12,space,0.28418500000043423,None,,1,[0.15067999999882886],[0.15068830000018352],12,1,145,2,353.07156880000184,,353.0562190000019,353.07156880000184,354.07036920000246,354.07036920000246,354.08670490000077,354.37129220000134,space,0.28418500000043423,None,354.3721052000001,355.08680266666875,355.40301340000224,355.3846259999991,355.38503520000086,355.40301340000224,355.40301340000224,355.40301340000224,355.5539881000004,,1,[0.15067999999882886],[0.15068830000018352],PARTICIPANT_,001,2025-11-13_18h12.28.392,Intentional Binding_exp,,2025.1.1,60.83320811735984,2025-11-13 18h12.48.323899 +0530,
0.1,1000.0,exp,146,2,12,space,0.3308209999995597,None,,1,[0.5344446999988577],[0.5344594999987748],12,2,146,6,355.57041000000027,,355.5542401999992,355.57041000000027,356.5540012999991,356.5540012999991,356.5701330000011,356.8882326000021,space,0.3308209999995597,None,356.8888282000007,357.0034366666662,357.3186120999999,357.305404499999,357.3057867999996,357.3186120999999,357.3186120999999,357.3186120999999,357.85352240000066,,1,[0.5344446999988577],[0.5344594999987748],PARTICIPANT_,001,2025-11-13_18h12.28.392,Intentional Binding_exp,,2025.1.1,60.83320811735984,2025-11-13 18h12.48.323899 +0530,
0.1,400.0,unexp,147,3,12,space,0.19843519999994896,None,,1,[0.43486230000053183],[0.4348723000002792],12,3,147,0,357.8696884000019,,357.8537744000023,357.8696884000019,358.8541241999992,358.8541241999992,358.8705501000004,359.0545151000006,space,0.19843519999994896,None,359.05529340000066,359.15376736666826,359.46881589999975,359.4498206999997,359.4504815,359.46881589999975,359.46881589999975,359.46881589999975,359.9039975000014,,1,[0.43486230000053183],[0.4348723000002792],PARTICIPANT_,001,2025-11-13_18h12.28.392,Intentional Binding_exp,,2025.1.1,60.83320811735984,2025-11-13 18h12.48.323899 +0530,
0.4,1000.0,exp,148,4,12,space,0.2178533999976935,None,,1,[0.1504678999990574],[0.1504800000002433],12,4,148,10,359.91968380000253,,359.90423759999976,359.91968380000253,360.9205226000013,360.9205226000013,360.9205226000013,361.1532776000022,space,0.2178533999976935,None,361.15397870000015,361.5546247666682,361.885535100002,361.85653900000034,361.85691080000106,361.885535100002,361.885535100002,361.885535100002,362.03642519999994,,1,[0.1504678999990574],[0.1504800000002433],PARTICIPANT_,001,2025-11-13_18h12.28.392,Intentional Binding_exp,,2025.1.1,60.83320811735984,2025-11-13 18h12.48.323899 +0530,
0.7,1000.0,exp,149,5,12,space,0.12662310000087018,None,,1,[0.08435230000031879],[0.08436319999964326],12,5,149,8,362.0533523000013,,362.0366718000005,362.0533523000013,363.03625230000034,363.03625230000034,363.05357379999987,363.17034129999956,space,0.12662310000087018,None,363.17112330000236,363.86984356666676,364.18518830000176,364.1682956000004,364.1686879000008,364.18518830000176,364.18518830000176,364.18518830000176,364.26989830000093,,1,[0.08435230000031879],[0.08436319999964326],PARTICIPANT_,001,2025-11-13_18h12.28.392,Intentional Binding_exp,,2025.1.1,60.83320811735984,2025-11-13 18h12.48.323899 +0530,
0.7,1000.0,exp,150,6,12,space,0.12073499999678461,None,,1,[0.10167440000077477],[0.10168270000212942],12,6,150,5,364.2859944000011,,364.2701581000001,364.2859944000011,365.26956079999945,365.26956079999945,365.2859075000015,365.4028461000016,space,0.12073499999678461,None,365.403581999999,366.1022238666667,366.4190877000001,366.4010292999992,366.4014133000019,366.4190877000001,366.4190877000001,366.4190877000001,366.5212008000017,,1,[0.10167440000077477],[0.10168270000212942],PARTICIPANT_,001,2025-11-13_18h12.28.392,Intentional Binding_exp,,2025.1.1,60.83320811735984,2025-11-13 18h12.48.323899 +0530,
0.4,1000.0,exp,151,7,12,space,0.2330571999991662,None,,1,[0.2010755999981484],[0.20108649999747286],12,7,151,7,366.5365008000008,,366.521446499999,366.5365008000008,367.53545680000025,367.53545680000025,367.53545680000025,367.7698653000007,space,0.2330571999991662,None,367.7706459000001,368.17139296666596,368.4843925999994,368.4687440000016,368.4691324000014,368.4843925999994,368.4843925999994,368.4843925999994,368.68586340000184,,1,[0.2010755999981484],[0.20108649999747286],PARTICIPANT_,001,2025-11-13_18h12.28.392,Intentional Binding_exp,,2025.1.1,60.83320811735984,2025-11-13 18h12.48.323899 +0530,
0.1,1000.0,exp,152,8,12,space,0.06627850000222679,None,,1,[0.43477440000060597],[0.43478789999790024],12,8,152,3,368.7022985000003,,368.6861444000024,368.7022985000003,369.6863728999997,369.6863728999997,369.7019712000001,369.770486100002,space,0.06627850000222679,None,369.7713791000024,369.8860884666685,370.20170040000085,370.1833876000019,370.1838061000017,370.20170040000085,370.20170040000085,370.20170040000085,370.6368442999992,,1,[0.43477440000060597],[0.43478789999790024],PARTICIPANT_,001,2025-11-13_18h12.28.392,Intentional Binding_exp,,2025.1.1,60.83320811735984,2025-11-13 18h12.48.323899 +0530,
0.4,400.0,unexp,153,9,12,space,0.18272829999841633,None,,1,[0.4831225000016275],[0.4831348000006983],12,9,153,1,370.6522240000013,,370.6370816000017,370.6522240000013,371.6378388000012,371.6378388000012,371.65475779999906,371.8221295000003,space,0.18272829999841633,None,371.8228760999991,372.2349363666692,372.57006120000005,372.53745680000065,372.5378316000024,372.57006120000005,372.57006120000005,372.57006120000005,373.05351940000037,,1,[0.4831225000016275],[0.4831348000006983],PARTICIPANT_,001,2025-11-13_18h12.28.392,Intentional Binding_exp,,2025.1.1,60.83320811735984,2025-11-13 18h12.48.323899 +0530,
0.1,1000.0,exp,154,10,12,space,3.3510894999999437,None,,1,[0.43332250000094064],[0.43333269999857293],12,10,154,9,373.0699827999997,,373.0537894000008,373.0699827999997,374.06963200000246,374.06963200000246,374.085188699999,377.4356700000026,space,3.3510894999999437,None,377.43648140000005,377.53504656666723,377.86766360000183,377.8362765999991,377.8366663000015,377.86766360000183,377.86766360000183,377.86766360000183,378.30145040000207,,1,[0.43332250000094064],[0.43333269999857293],PARTICIPANT_,001,2025-11-13_18h12.28.392,Intentional Binding_exp,,2025.1.1,60.83320811735984,2025-11-13 18h12.48.323899 +0530,
0.4,1000.0,exp,155,11,12,space,0.665714199996728,None,,1,[0.13453490000028978],[0.13454319999800646],12,11,155,4,378.3178033000004,,378.30176220000067,378.3178033000004,379.30164010000226,379.30164010000226,379.31829199999993,379.96855720000167,space,0.665714199996728,None,379.9692009999999,380.36771326666735,380.6841573999991,380.66239029999997,380.66278779999993,380.6841573999991,380.6841573999991,380.6841573999991,380.81903450000027,,1,[0.13453490000028978],[0.13454319999800646],PARTICIPANT_,001,2025-11-13_18h12.28.392,Intentional Binding_exp,,2025.1.1,60.83320811735984,2025-11-13 18h12.48.323899 +0530,
0.7,1000.0,exp,156,0,13,space,0.022808099998655962,None,,1,[0.10168109999722219],[0.1016920999973081],13,0,156,5,380.8349503999998,,380.81928379999954,380.8349503999998,381.83453360000203,381.83453360000203,381.83453360000203,381.86754909999945,space,0.022808099998655962,None,381.8681480000014,382.5680190666683,382.90022580000004,382.8694104999995,382.8699254999992,382.90022580000004,382.90022580000004,382.90022580000004,383.0022744000016,,1,[0.10168109999722219],[0.1016920999973081],PARTICIPANT_,001,2025-11-13_18h12.28.392,Intentional Binding_exp,,2025.1.1,60.83320811735984,2025-11-13 18h12.48.323899 +0530,
0.1,1000.0,exp,157,1,13,space,0.1656604999989213,None,,1,[0.4192098999992595],[0.41922499999782303],13,1,157,3,383.0173842000004,,383.0025210999993,383.0173842000004,384.0036610999996,384.0036610999996,384.0202003000013,384.1707341000001,space,0.1656604999989213,None,384.1716575999999,384.28426546666765,384.59926970000015,384.5793506000009,384.57977290000053,384.59926970000015,384.59926970000015,384.59926970000015,385.0188335000021,,1,[0.4192098999992595],[0.41922499999782303],PARTICIPANT_,001,2025-11-13_18h12.28.392,Intentional Binding_exp,,2025.1.1,60.83320811735984,2025-11-13 18h12.48.323899 +0530,
0.1,1000.0,exp,158,2,13,space,0.9693796000028669,None,,1,[0.8858947000007902],[0.8859028000006219],13,2,158,6,385.03466110000227,,385.01907629999914,385.03466110000227,386.0334819000018,386.0334819000018,386.0334819000018,387.01809929999945,space,0.9693796000028669,None,387.0187681000025,387.1348257666689,387.44924660000106,387.4285215000018,387.428966200001,387.44924660000106,387.44924660000106,387.44924660000106,388.3354536000006,,1,[0.8858947000007902],[0.8859028000006219],PARTICIPANT_,001,2025-11-13_18h12.28.392,Intentional Binding_exp,,2025.1.1,60.83320811735984,2025-11-13 18h12.48.323899 +0530,
0.7,400.0,unexp,159,3,13,space,0.0636867000030179,None,,1,[0.09925149999980931],[0.09926430000268738],13,3,159,2,388.35051720000047,,388.33570429999963,388.35051720000047,389.34998260000066,389.34998260000066,389.34998260000066,389.41790870000114,space,0.0636867000030179,None,389.4185761000008,390.11845216666575,390.4499297000002,390.4174539000014,390.4178791000013,390.4499297000002,390.4499297000002,390.4499297000002,390.5495707000009,,1,[0.09925149999980931],[0.09926430000268738],PARTICIPANT_,001,2025-11-13_18h12.28.392,Intentional Binding_exp,,2025.1.1,60.83320811735984,2025-11-13 18h12.48.323899 +0530,
0.4,1000.0,exp,160,4,13,space,0.3262107000009564,None,,1,[0.2019419000025664],[0.20195180000155233],13,4,160,4,390.56685950000247,,390.549818200001,390.56685950000247,391.5505928999992,391.5505928999992,391.56729300000006,391.8844336000002,space,0.3262107000009564,None,391.8852179000023,392.29967456666805,392.6156271,392.60033060000205,392.6007176000021,392.6156271,392.6156271,392.6156271,392.81786680000005,,1,[0.2019419000025664],[0.20195180000155233],PARTICIPANT_,001,2025-11-13_18h12.28.392,Intentional Binding_exp,,2025.1.1,60.83320811735984,2025-11-13 18h12.48.323899 +0530,
0.7,1000.0,exp,161,5,13,space,0.6607542000019748,None,,1,[0.1015174999993178],[0.10152569999991101],13,5,161,8,392.83348939999996,,392.8181035000016,392.83348939999996,393.8332881000024,393.8332881000024,393.8332881000024,394.5004703000013,space,0.6607542000019748,None,394.50124720000167,395.200330566666,395.53230110000004,395.5023110000002,395.50270490000185,395.53230110000004,395.53230110000004,395.53230110000004,395.6341390000016,,1,[0.1015174999993178],[0.10152569999991101],PARTICIPANT_,001,2025-11-13_18h12.28.392,Intentional Binding_exp,,2025.1.1,60.83320811735984,2025-11-13 18h12.48.323899 +0530,
