thisN,thisTrialN,thisRepN,mouse.x,mouse.y,mouse.leftButton,mouse.midButton,mouse.rightButton,mouse.time,mouse.clicked_name,trials.thisRepN,trials.thisTrialN,trials.thisN,trials.thisIndex,thisRow.t,notes,num_distr,trial.started,Fixation.started,Target.started,mouse.started,trial.stopped,trials.mouse.x,trials.mouse.y,trials.mouse.leftButton,trials.mouse.midButton,trials.mouse.rightButton,trials.mouse.time,trials.mouse.clicked_name,participant,session,date,expName,expVersion,psychopyVersion,frameRate,expStart
0,0,0,[np.float64(-0.30694444444444446)],[np.float64(-0.4486111111111111)],[1],[0],[0],[1.9246243000015966],['Target'],0,0,0,0,0.0664966,,10,0.0481932,0.0664966,0.0664966,0.0482194,1.9730695,[np.float64(-0.30694444444444446)],[np.float64(-0.4486111111111111)],[1],[0],[0],[1.9246243000015966],['Target'],THREE,1,2025-10-03_08h41.12.152,Visual Search Experiment,,2025.1.1,60.25657249,2025-10-03 08h41.20.661807 +0530
1,0,1,[np.float64(0.29583333333333334)],[np.float64(-0.29444444444444445)],[1],[0],[0],[1.2739332000055583],['Target'],1,0,1,0,2.0169864,,5,1.9948016,2.0169864,2.0169864,0.0215169,3.2689981,[np.float64(0.29583333333333334)],[np.float64(-0.29444444444444445)],[1],[0],[0],[1.2739332000055583],['Target'],THREE,1,2025-10-03_08h41.12.152,Visual Search Experiment,,2025.1.1,60.25657249,2025-10-03 08h41.20.661807 +0530
2,0,2,[np.float64(0.17916666666666667)],[np.float64(-0.0375)],[1],[0],[0],[1.2885023999988334],['Target'],2,0,2,0,3.299216,,5,3.2820108,3.299216,3.299216,0.0128211,4.5707289,[np.float64(0.17916666666666667)],[np.float64(-0.0375)],[1],[0],[0],[1.2885023999988334],['Target'],THREE,1,2025-10-03_08h41.12.152,Visual Search Experiment,,2025.1.1,60.25657249,2025-10-03 08h41.20.661807 +0530
3,0,3,[np.float64(-0.30972222222222223)],[np.float64(0.42083333333333334)],[1],[0],[0],[1.2714297999991686],['Target'],3,0,3,0,4.6330211,,10,4.6127794,4.6330211,4.6330211,0.0418958,5.8844831,[np.float64(-0.30972222222222223)],[np.float64(0.42083333333333334)],[1],[0],[0],[1.2714297999991686],['Target'],THREE,1,2025-10-03_08h41.12.152,Visual Search Experiment,,2025.1.1,60.25657249,2025-10-03 08h41.20.661807 +0530
4,0,4,[np.float64(0.2986111111111111)],[np.float64(-0.04722222222222222)],[1],[0],[0],[2.0000329999966198],['Target'],4,0,4,0,5.9152691,,10,5.9016351,5.9152691,5.9152691,0.0169688,7.9018283,[np.float64(0.2986111111111111)],[np.float64(-0.04722222222222222)],[1],[0],[0],[2.0000329999966198],['Target'],THREE,1,2025-10-03_08h41.12.152,Visual Search Experiment,,2025.1.1,60.25657249,2025-10-03 08h41.20.661807 +0530
5,0,5,[np.float64(-0.3611111111111111)],[np.float64(0.4625)],[1],[0],[0],[1.6244477000000188],['Target'],5,0,5,0,7.949174,,10,7.9262108,7.949174,7.949174,0.0242291,9.550798,[np.float64(-0.3611111111111111)],[np.float64(0.4625)],[1],[0],[0],[1.6244477000000188],['Target'],THREE,1,2025-10-03_08h41.12.152,Visual Search Experiment,,2025.1.1,60.25657249,2025-10-03 08h41.20.661807 +0530
6,0,6,[np.float64(0.2361111111111111)],[np.float64(-0.18055555555555555)],[1],[0],[0],[1.4239606999981334],['Target'],6,0,6,0,9.631489,,5,9.5601423,9.631489,9.631489,0.0092424,10.9842843,[np.float64(0.2361111111111111)],[np.float64(-0.18055555555555555)],[1],[0],[0],[1.4239606999981334],['Target'],THREE,1,2025-10-03_08h41.12.152,Visual Search Experiment,,2025.1.1,60.25657249,2025-10-03 08h41.20.661807 +0530
7,0,7,[np.float64(-0.09305555555555556)],[np.float64(-0.4652777777777778)],[1],[0],[0],[1.8078722999998718],['Target'],7,0,7,0,11.015049,,5,10.992751,11.015049,11.015049,0.0082707,12.8007971,[np.float64(-0.09305555555555556)],[np.float64(-0.4652777777777778)],[1],[0],[0],[1.8078722999998718],['Target'],THREE,1,2025-10-03_08h41.12.152,Visual Search Experiment,,2025.1.1,60.25657249,2025-10-03 08h41.20.661807 +0530
8,0,8,[np.float64(-0.30416666666666664)],[np.float64(0.020833333333333332)],[1],[0],[0],[1.2487935000026482],['Target'],8,0,8,0,12.8313879,,10,12.817951,12.8313879,12.8313879,0.0169541,14.0669061,[np.float64(-0.30416666666666664)],[np.float64(0.020833333333333332)],[1],[0],[0],[1.2487935000026482],['Target'],THREE,1,2025-10-03_08h41.12.152,Visual Search Experiment,,2025.1.1,60.25657249,2025-10-03 08h41.20.661807 +0530
9,0,9,[np.float64(-0.24027777777777778)],[np.float64(-0.42777777777777776)],[1],[0],[0],[1.7898215999957756],['Target'],9,0,9,0,14.115528,,10,14.09298,14.115528,14.115528,0.0259276,15.8829751,[np.float64(-0.24027777777777778)],[np.float64(-0.42777777777777776)],[1],[0],[0],[1.7898215999957756],['Target'],THREE,1,2025-10-03_08h41.12.152,Visual Search Experiment,,2025.1.1,60.25657249,2025-10-03 08h41.20.661807 +0530
10,0,10,[np.float64(0.2875)],[np.float64(0.09166666666666666)],[1],[0],[0],[1.4299600000013015],['Target'],10,0,10,0,15.9133115,,10,15.9022282,15.9133115,15.9133115,0.019149,17.3323363,[np.float64(0.2875)],[np.float64(0.09166666666666666)],[1],[0],[0],[1.4299600000013015],['Target'],THREE,1,2025-10-03_08h41.12.152,Visual Search Experiment,,2025.1.1,60.25657249,2025-10-03 08h41.20.661807 +0530
11,0,11,"[np.float64(-0.4013888888888889), np.float64(-0.39305555555555555)]","[np.float64(0.33055555555555555), np.float64(0.31666666666666665)]","[1, 1]","[0, 0]","[0, 0]","[1.2920566000029794, 2.023631000003661]","[None, 'Target']",11,0,11,0,17.3634857,,5,17.3415223,17.3634857,17.3634857,0.0090825,19.3653024,"[np.float64(-0.4013888888888889), np.float64(-0.39305555555555555)]","[np.float64(0.33055555555555555), np.float64(0.31666666666666665)]","[1, 1]","[0, 0]","[0, 0]","[1.2920566000029794, 2.023631000003661]","[None, 'Target']",THREE,1,2025-10-03_08h41.12.152,Visual Search Experiment,,2025.1.1,60.25657249,2025-10-03 08h41.20.661807 +0530
12,0,12,[np.float64(-0.4305555555555556)],[np.float64(-0.3486111111111111)],[1],[0],[0],[1.8893746999965515],['Target'],12,0,12,0,19.3965048,,5,19.3765734,19.3965048,19.3965048,0.011131,21.2660902,[np.float64(-0.4305555555555556)],[np.float64(-0.3486111111111111)],[1],[0],[0],[1.8893746999965515],['Target'],THREE,1,2025-10-03_08h41.12.152,Visual Search Experiment,,2025.1.1,60.25657249,2025-10-03 08h41.20.661807 +0530
13,0,13,[np.float64(-0.34444444444444444)],[np.float64(0.36527777777777776)],[1],[0],[0],[1.6474095999947167],['Target'],13,0,13,0,21.3138133,,10,21.284862,21.3138133,21.3138133,0.0186956,22.9324345,[np.float64(-0.34444444444444444)],[np.float64(0.36527777777777776)],[1],[0],[0],[1.6474095999947167],['Target'],THREE,1,2025-10-03_08h41.12.152,Visual Search Experiment,,2025.1.1,60.25657249,2025-10-03 08h41.20.661807 +0530
14,0,14,[np.float64(0.28888888888888886)],[np.float64(-0.4041666666666667)],[1],[0],[0],[1.8902441000027466],['Target'],14,0,14,0,22.9646326,,5,22.9424564,22.9646326,22.9646326,0.0099252,24.8328937,[np.float64(0.28888888888888886)],[np.float64(-0.4041666666666667)],[1],[0],[0],[1.8902441000027466],['Target'],THREE,1,2025-10-03_08h41.12.152,Visual Search Experiment,,2025.1.1,60.25657249,2025-10-03 08h41.20.661807 +0530
15,0,15,[np.float64(0.09722222222222222)],[np.float64(-0.04583333333333333)],[1],[0],[0],[1.6755613999994239],['Target'],15,0,15,0,24.8802338,,10,24.8563718,24.8802338,24.8802338,0.0233788,26.5320913,[np.float64(0.09722222222222222)],[np.float64(-0.04583333333333333)],[1],[0],[0],[1.6755613999994239],['Target'],THREE,1,2025-10-03_08h41.12.152,Visual Search Experiment,,2025.1.1,60.25657249,2025-10-03 08h41.20.661807 +0530
16,0,16,[np.float64(-0.10138888888888889)],[np.float64(0.38333333333333336)],[1],[0],[0],[1.4583124999990105],['Target'],16,0,16,0,26.5802563,,10,26.5581607,26.5802563,26.5802563,0.0259449,28.0167042,[np.float64(-0.10138888888888889)],[np.float64(0.38333333333333336)],[1],[0],[0],[1.4583124999990105],['Target'],THREE,1,2025-10-03_08h41.12.152,Visual Search Experiment,,2025.1.1,60.25657249,2025-10-03 08h41.20.661807 +0530
17,0,17,[np.float64(0.13194444444444445)],[np.float64(0.42916666666666664)],[1],[0],[0],[1.4786120999997365],['Target'],17,0,17,0,28.0637439,,5,28.0352737,28.0637439,28.0637439,0.0183473,29.5140851,[np.float64(0.13194444444444445)],[np.float64(0.42916666666666664)],[1],[0],[0],[1.4786120999997365],['Target'],THREE,1,2025-10-03_08h41.12.152,Visual Search Experiment,,2025.1.1,60.25657249,2025-10-03 08h41.20.661807 +0530
18,0,18,[np.float64(-0.0125)],[np.float64(0.3277777777777778)],[1],[0],[0],[1.672230900003342],['Target'],18,0,18,0,29.5454052,,5,29.5254305,29.5454052,29.5454052,0.0112446,31.1978137,[np.float64(-0.0125)],[np.float64(0.3277777777777778)],[1],[0],[0],[1.672230900003342],['Target'],THREE,1,2025-10-03_08h41.12.152,Visual Search Experiment,,2025.1.1,60.25657249,2025-10-03 08h41.20.661807 +0530
19,0,19,[np.float64(0.45416666666666666)],[np.float64(-0.08611111111111111)],[1],[0],[0],[1.663211400002183],['Target'],19,0,19,0,31.2285115,,10,31.2176137,31.2285115,31.2285115,0.0197053,32.8809669,[np.float64(0.45416666666666666)],[np.float64(-0.08611111111111111)],[1],[0],[0],[1.663211400002183],['Target'],THREE,1,2025-10-03_08h41.12.152,Visual Search Experiment,,2025.1.1,60.25657249,2025-10-03 08h41.20.661807 +0530
20,0,20,[np.float64(0.24166666666666667)],[np.float64(0.30416666666666664)],[1],[0],[0],[1.68038279999746],['Target'],20,0,20,0,32.9118472,,10,32.9001836,32.9118472,32.9118472,0.0191098,34.5807192,[np.float64(0.24166666666666667)],[np.float64(0.30416666666666664)],[1],[0],[0],[1.68038279999746],['Target'],THREE,1,2025-10-03_08h41.12.152,Visual Search Experiment,,2025.1.1,60.25657249,2025-10-03 08h41.20.661807 +0530
21,0,21,[np.float64(-0.4222222222222222)],[np.float64(-0.20694444444444443)],[1],[0],[0],[2.0224592000013217],['Target'],21,0,21,0,34.6115473,,5,34.5924486,34.6115473,34.6115473,0.0116435,36.6151628,[np.float64(-0.4222222222222222)],[np.float64(-0.20694444444444443)],[1],[0],[0],[2.0224592000013217],['Target'],THREE,1,2025-10-03_08h41.12.152,Visual Search Experiment,,2025.1.1,60.25657249,2025-10-03 08h41.20.661807 +0530
22,0,22,[np.float64(0.12361111111111112)],[np.float64(0.4722222222222222)],[1],[0],[0],[2.224242000003869],['Target'],22,0,22,0,36.6623429,,10,36.6392351,36.6623429,36.6623429,0.023974,38.8636272,[np.float64(0.12361111111111112)],[np.float64(0.4722222222222222)],[1],[0],[0],[2.224242000003869],['Target'],THREE,1,2025-10-03_08h41.12.152,Visual Search Experiment,,2025.1.1,60.25657249,2025-10-03 08h41.20.661807 +0530
23,0,23,[np.float64(0.10277777777777777)],[np.float64(0.004166666666666667)],[1],[0],[0],[2.2562642999982927],['Target'],23,0,23,0,38.8969841,,5,38.8756547,38.8969841,38.8969841,0.0119462,41.1321566,[np.float64(0.10277777777777777)],[np.float64(0.004166666666666667)],[1],[0],[0],[2.2562642999982927],['Target'],THREE,1,2025-10-03_08h41.12.152,Visual Search Experiment,,2025.1.1,60.25657249,2025-10-03 08h41.20.661807 +0530
24,0,24,[np.float64(-0.21944444444444444)],[np.float64(0.14583333333333334)],[1],[0],[0],[2.548954199999571],['Target'],24,0,24,0,41.1612793,,5,41.1486503,41.1612793,41.1612793,0.0163103,43.6978001,[np.float64(-0.21944444444444444)],[np.float64(0.14583333333333334)],[1],[0],[0],[2.548954199999571],['Target'],THREE,1,2025-10-03_08h41.12.152,Visual Search Experiment,,2025.1.1,60.25657249,2025-10-03 08h41.20.661807 +0530
25,0,25,[np.float64(-0.2569444444444444)],[np.float64(-0.17222222222222222)],[1],[0],[0],[2.935832399998617],['Target'],25,0,25,0,43.7275587,,5,43.7125791,43.7275587,43.7275587,0.0146542,46.6486363,[np.float64(-0.2569444444444444)],[np.float64(-0.17222222222222222)],[1],[0],[0],[2.935832399998617],['Target'],THREE,1,2025-10-03_08h41.12.152,Visual Search Experiment,,2025.1.1,60.25657249,2025-10-03 08h41.20.661807 +0530
26,0,26,[np.float64(0.30416666666666664)],[np.float64(-0.37777777777777777)],[1],[0],[0],[2.513087800005451],['Target'],26,0,26,0,46.7149891,,10,46.6827718,46.7149891,46.7149891,0.0339748,49.1960793,[np.float64(0.30416666666666664)],[np.float64(-0.37777777777777777)],[1],[0],[0],[2.513087800005451],['Target'],THREE,1,2025-10-03_08h41.12.152,Visual Search Experiment,,2025.1.1,60.25657249,2025-10-03 08h41.20.661807 +0530
27,0,27,[np.float64(0.043055555555555555)],[np.float64(-0.041666666666666664)],[1],[0],[0],[3.4647561000019778],['Target'],27,0,27,0,49.2268494,,10,49.2153392,49.2268494,49.2268494,0.0191567,52.6802667,[np.float64(0.043055555555555555)],[np.float64(-0.041666666666666664)],[1],[0],[0],[3.4647561000019778],['Target'],THREE,1,2025-10-03_08h41.12.152,Visual Search Experiment,,2025.1.1,60.25657249,2025-10-03 08h41.20.661807 +0530
28,0,28,[np.float64(-0.40555555555555556)],[np.float64(0.4930555555555556)],[1],[0],[0],[2.8385958000071696],['Target'],28,0,28,0,52.7331841,,10,52.70793,52.7331841,52.7331841,0.0274881,55.54677,[np.float64(-0.40555555555555556)],[np.float64(0.4930555555555556)],[1],[0],[0],[2.8385958000071696],['Target'],THREE,1,2025-10-03_08h41.12.152,Visual Search Experiment,,2025.1.1,60.25657249,2025-10-03 08h41.20.661807 +0530
29,0,29,[np.float64(-0.3416666666666667)],[np.float64(0.020833333333333332)],[1],[0],[0],[1.506414000003133],['Target'],29,0,29,0,55.5941881,,10,55.5719902,55.5941881,55.5941881,0.0251016,57.078573,[np.float64(-0.3416666666666667)],[np.float64(0.020833333333333332)],[1],[0],[0],[1.506414000003133],['Target'],THREE,1,2025-10-03_08h41.12.152,Visual Search Experiment,,2025.1.1,60.25657249,2025-10-03 08h41.20.661807 +0530
30,0,30,[np.float64(0.011111111111111112)],[np.float64(-0.37916666666666665)],[1],[0],[0],[1.710698599999887],['Target'],30,0,30,0,57.1097834,,5,57.0918535,57.1097834,57.1097834,0.0131633,58.802808,[np.float64(0.011111111111111112)],[np.float64(-0.37916666666666665)],[1],[0],[0],[1.710698599999887],['Target'],THREE,1,2025-10-03_08h41.12.152,Visual Search Experiment,,2025.1.1,60.25657249,2025-10-03 08h41.20.661807 +0530
31,0,31,[np.float64(0.4027777777777778)],[np.float64(0.48333333333333334)],[1],[0],[0],[1.361627899997984],['Target'],31,0,31,0,58.8259999,,5,58.8171807,58.8259999,58.8259999,0.0141755,60.1789456,[np.float64(0.4027777777777778)],[np.float64(0.48333333333333334)],[1],[0],[0],[1.361627899997984],['Target'],THREE,1,2025-10-03_08h41.12.152,Visual Search Experiment,,2025.1.1,60.25657249,2025-10-03 08h41.20.661807 +0530
32,0,32,[np.float64(0.12361111111111112)],[np.float64(-0.18055555555555555)],[1],[0],[0],[1.3491674000033527],['Target'],32,0,32,0,60.2267294,,10,60.1995789,60.2267294,60.2267294,0.0205578,61.5489923,[np.float64(0.12361111111111112)],[np.float64(-0.18055555555555555)],[1],[0],[0],[1.3491674000033527],['Target'],THREE,1,2025-10-03_08h41.12.152,Visual Search Experiment,,2025.1.1,60.25657249,2025-10-03 08h41.20.661807 +0530
33,0,33,[np.float64(0.1527777777777778)],[np.float64(0.15)],[1],[0],[0],[1.9377090000052704],['Target'],33,0,33,0,61.6467103,,10,61.6065364,61.6467103,61.6467103,0.0573172,63.5445012,[np.float64(0.1527777777777778)],[np.float64(0.15)],[1],[0],[0],[1.9377090000052704],['Target'],THREE,1,2025-10-03_08h41.12.152,Visual Search Experiment,,2025.1.1,60.25657249,2025-10-03 08h41.20.661807 +0530
34,0,34,[np.float64(-0.21944444444444444)],[np.float64(-0.275)],[1],[0],[0],[1.2754730000015115],['Target'],34,0,34,0,63.5763036,,5,63.5527664,63.5763036,63.5763036,0.0081595,64.82837,[np.float64(-0.21944444444444444)],[np.float64(-0.275)],[1],[0],[0],[1.2754730000015115],['Target'],THREE,1,2025-10-03_08h41.12.152,Visual Search Experiment,,2025.1.1,60.25657249,2025-10-03 08h41.20.661807 +0530
35,0,35,[np.float64(-0.2652777777777778)],[np.float64(0.2125)],[1],[0],[0],[1.8911676000061561],['Target'],35,0,35,0,64.8589633,,5,64.8366221,64.8589633,64.8589633,0.0081614,66.7279223,[np.float64(-0.2652777777777778)],[np.float64(0.2125)],[1],[0],[0],[1.8911676000061561],['Target'],THREE,1,2025-10-03_08h41.12.152,Visual Search Experiment,,2025.1.1,60.25657249,2025-10-03 08h41.20.661807 +0530
36,0,36,[np.float64(0.18888888888888888)],[np.float64(-0.4888888888888889)],[1],[0],[0],[1.6296071999968262],['Target'],36,0,36,0,66.7584881,,5,66.7361142,66.7584881,66.7584881,0.0081063,68.3659704,[np.float64(0.18888888888888888)],[np.float64(-0.4888888888888889)],[1],[0],[0],[1.6296071999968262],['Target'],THREE,1,2025-10-03_08h41.12.152,Visual Search Experiment,,2025.1.1,60.25657249,2025-10-03 08h41.20.661807 +0530
37,0,37,[np.float64(-0.2222222222222222)],[np.float64(0.2652777777777778)],[1],[0],[0],[1.2893497000040952],['Target'],37,0,37,0,68.4622336,,10,68.4235238,68.4622336,68.4622336,0.057384,69.7131353,[np.float64(-0.2222222222222222)],[np.float64(0.2652777777777778)],[1],[0],[0],[1.2893497000040952],['Target'],THREE,1,2025-10-03_08h41.12.152,Visual Search Experiment,,2025.1.1,60.25657249,2025-10-03 08h41.20.661807 +0530
38,0,38,[np.float64(-0.24027777777777778)],[np.float64(0.4097222222222222)],[1],[0],[0],[1.65345079999679],['Target'],38,0,38,0,69.7418472,,5,69.7245002,69.7418472,69.7418472,0.0112454,71.378121,[np.float64(-0.24027777777777778)],[np.float64(0.4097222222222222)],[1],[0],[0],[1.65345079999679],['Target'],THREE,1,2025-10-03_08h41.12.152,Visual Search Experiment,,2025.1.1,60.25657249,2025-10-03 08h41.20.661807 +0530
39,0,39,[np.float64(-0.2972222222222222)],[np.float64(-0.3763888888888889)],[1],[0],[0],[1.8247276000038255],['Target'],39,0,39,0,71.4084408,,5,71.3900944,71.4084408,71.4084408,0.0118774,73.2150506,[np.float64(-0.2972222222222222)],[np.float64(-0.3763888888888889)],[1],[0],[0],[1.8247276000038255],['Target'],THREE,1,2025-10-03_08h41.12.152,Visual Search Experiment,,2025.1.1,60.25657249,2025-10-03 08h41.20.661807 +0530
40,0,40,[np.float64(-0.25416666666666665)],[np.float64(-0.03333333333333333)],[1],[0],[0],[1.6580634999991162],['Target'],40,0,40,0,73.275405,,10,73.2528465,73.275405,73.275405,0.0376127,74.9111194,[np.float64(-0.25416666666666665)],[np.float64(-0.03333333333333333)],[1],[0],[0],[1.6580634999991162],['Target'],THREE,1,2025-10-03_08h41.12.152,Visual Search Experiment,,2025.1.1,60.25657249,2025-10-03 08h41.20.661807 +0530
41,0,41,[np.float64(0.17916666666666667)],[np.float64(0.1736111111111111)],[1],[0],[0],[2.0346822000065004],['Target'],41,0,41,0,74.9419096,,5,74.9270792,74.9419096,74.9419096,0.0158295,76.9620092,[np.float64(0.17916666666666667)],[np.float64(0.1736111111111111)],[1],[0],[0],[2.0346822000065004],['Target'],THREE,1,2025-10-03_08h41.12.152,Visual Search Experiment,,2025.1.1,60.25657249,2025-10-03 08h41.20.661807 +0530
42,0,42,[np.float64(0.3763888888888889)],[np.float64(-0.44583333333333336)],[1],[0],[0],[2.831875999996555],['Target'],42,0,42,0,77.0255375,,10,76.9950314,77.0255375,77.0255375,0.0328372,79.8270683,[np.float64(0.3763888888888889)],[np.float64(-0.44583333333333336)],[1],[0],[0],[2.831875999996555],['Target'],THREE,1,2025-10-03_08h41.12.152,Visual Search Experiment,,2025.1.1,60.25657249,2025-10-03 08h41.20.661807 +0530
43,0,43,[np.float64(-0.08888888888888889)],[np.float64(0.21805555555555556)],[1],[0],[0],[1.5877207000012277],['Target'],43,0,43,0,79.8755617,,10,79.8547714,79.8755617,79.8755617,0.0275684,81.4426746,[np.float64(-0.08888888888888889)],[np.float64(0.21805555555555556)],[1],[0],[0],[1.5877207000012277],['Target'],THREE,1,2025-10-03_08h41.12.152,Visual Search Experiment,,2025.1.1,60.25657249,2025-10-03 08h41.20.661807 +0530
44,0,44,[np.float64(0.013888888888888888)],[np.float64(0.19583333333333333)],[1],[0],[0],[1.175873899999715],['Target'],44,0,44,0,81.4913111,,10,81.4680255,81.4913111,81.4913111,0.0252095,82.6441124,[np.float64(0.013888888888888888)],[np.float64(0.19583333333333333)],[1],[0],[0],[1.175873899999715],['Target'],THREE,1,2025-10-03_08h41.12.152,Visual Search Experiment,,2025.1.1,60.25657249,2025-10-03 08h41.20.661807 +0530
45,0,45,[np.float64(-0.06944444444444445)],[np.float64(0.3472222222222222)],[1],[0],[0],[1.5675215000010212],['Target'],45,0,45,0,82.6740911,,5,82.660776,82.6740911,82.6740911,0.0165192,84.2285938,[np.float64(-0.06944444444444445)],[np.float64(0.3472222222222222)],[1],[0],[0],[1.5675215000010212],['Target'],THREE,1,2025-10-03_08h41.12.152,Visual Search Experiment,,2025.1.1,60.25657249,2025-10-03 08h41.20.661807 +0530
46,0,46,[np.float64(0.009722222222222222)],[np.float64(-0.15555555555555556)],[1],[0],[0],[1.6795401999988826],['Target'],46,0,46,0,84.2920584,,10,84.2633362,84.2920584,84.2920584,0.0345277,85.9430847,[np.float64(0.009722222222222222)],[np.float64(-0.15555555555555556)],[1],[0],[0],[1.6795401999988826],['Target'],THREE,1,2025-10-03_08h41.12.152,Visual Search Experiment,,2025.1.1,60.25657249,2025-10-03 08h41.20.661807 +0530
47,0,47,[np.float64(0.001388888888888889)],[np.float64(0.2875)],[1],[0],[0],[1.4016991999960737],['Target'],47,0,47,0,85.9736958,,5,85.9583163,85.9736958,85.9736958,0.0150832,87.3602584,[np.float64(0.001388888888888889)],[np.float64(0.2875)],[1],[0],[0],[1.4016991999960737],['Target'],THREE,1,2025-10-03_08h41.12.152,Visual Search Experiment,,2025.1.1,60.25657249,2025-10-03 08h41.20.661807 +0530
48,0,48,[np.float64(-0.1763888888888889)],[np.float64(-0.15555555555555556)],[1],[0],[0],[1.3372221000026911],['Target'],48,0,48,0,87.3901656,,5,87.3722679,87.3901656,87.3901656,0.0118796,88.7096845,[np.float64(-0.1763888888888889)],[np.float64(-0.15555555555555556)],[1],[0],[0],[1.3372221000026911],['Target'],THREE,1,2025-10-03_08h41.12.152,Visual Search Experiment,,2025.1.1,60.25657249,2025-10-03 08h41.20.661807 +0530
49,0,49,[np.float64(-0.44722222222222224)],[np.float64(-0.15138888888888888)],[1],[0],[0],[1.6162837000010768],['Target'],49,0,49,0,88.7400195,,5,88.7264398,88.7400195,88.7400195,0.0166584,90.3429998,[np.float64(-0.44722222222222224)],[np.float64(-0.15138888888888888)],[1],[0],[0],[1.6162837000010768],['Target'],THREE,1,2025-10-03_08h41.12.152,Visual Search Experiment,,2025.1.1,60.25657249,2025-10-03 08h41.20.661807 +0530
50,0,50,[np.float64(0.07083333333333333)],[np.float64(-0.45694444444444443)],[1],[0],[0],[2.800650900004257],['Target'],50,0,50,0,90.3732886,,5,90.3602855,90.3732886,90.3732886,0.0171566,93.161165,[np.float64(0.07083333333333333)],[np.float64(-0.45694444444444443)],[1],[0],[0],[2.800650900004257],['Target'],THREE,1,2025-10-03_08h41.12.152,Visual Search Experiment,,2025.1.1,60.25657249,2025-10-03 08h41.20.661807 +0530
51,0,51,[np.float64(0.49027777777777776)],[np.float64(0.275)],[1],[0],[0],[2.1133419000034337],['Target'],51,0,51,0,93.2407054,,10,93.2108196,93.2407054,93.2407054,0.0494888,95.3244894,[np.float64(0.49027777777777776)],[np.float64(0.275)],[1],[0],[0],[2.1133419000034337],['Target'],THREE,1,2025-10-03_08h41.12.152,Visual Search Experiment,,2025.1.1,60.25657249,2025-10-03 08h41.20.661807 +0530
52,0,52,[np.float64(-0.32916666666666666)],[np.float64(-0.38333333333333336)],[1],[0],[0],[2.2473194999984116],['Target'],52,0,52,0,95.3735742,,10,95.3448074,95.3735742,95.3735742,0.0200838,97.5922943,[np.float64(-0.32916666666666666)],[np.float64(-0.38333333333333336)],[1],[0],[0],[2.2473194999984116],['Target'],THREE,1,2025-10-03_08h41.12.152,Visual Search Experiment,,2025.1.1,60.25657249,2025-10-03 08h41.20.661807 +0530
53,0,53,[np.float64(-0.3402777777777778)],[np.float64(0.4861111111111111)],[1],[0],[0],[2.3328838999950676],['Target'],53,0,53,0,97.6568415,,10,97.6276085,97.6568415,97.6568415,0.0351882,99.9607051,[np.float64(-0.3402777777777778)],[np.float64(0.4861111111111111)],[1],[0],[0],[2.3328838999950676],['Target'],THREE,1,2025-10-03_08h41.12.152,Visual Search Experiment,,2025.1.1,60.25657249,2025-10-03 08h41.20.661807 +0530
54,0,54,[np.float64(-0.44166666666666665)],[np.float64(-0.1388888888888889)],[1],[0],[0],[1.72741490000044],['Target'],54,0,54,0,100.0064634,,5,99.9799791,100.0064634,100.0064634,0.0190924,101.7076028,[np.float64(-0.44166666666666665)],[np.float64(-0.1388888888888889)],[1],[0],[0],[1.72741490000044],['Target'],THREE,1,2025-10-03_08h41.12.152,Visual Search Experiment,,2025.1.1,60.25657249,2025-10-03 08h41.20.661807 +0530
55,0,55,[np.float64(-0.25972222222222224)],[np.float64(-0.001388888888888889)],[1],[0],[0],[1.3645222000050126],['Target'],55,0,55,0,101.7385183,,10,101.726475,101.7385183,101.7385183,0.0187917,103.0911395,[np.float64(-0.25972222222222224)],[np.float64(-0.001388888888888889)],[1],[0],[0],[1.3645222000050126],['Target'],THREE,1,2025-10-03_08h41.12.152,Visual Search Experiment,,2025.1.1,60.25657249,2025-10-03 08h41.20.661807 +0530
56,0,56,"[np.float64(0.2361111111111111), np.float64(0.25277777777777777)]","[np.float64(-0.23194444444444445), np.float64(-0.1986111111111111)]","[1, 1]","[0, 0]","[0, 0]","[1.6832677999991574, 2.5957214000009117]","[None, 'Target']",56,0,56,0,103.1216086,,10,103.1108452,103.1216086,103.1216086,0.0195892,105.7067486,"[np.float64(0.2361111111111111), np.float64(0.25277777777777777)]","[np.float64(-0.23194444444444445), np.float64(-0.1986111111111111)]","[1, 1]","[0, 0]","[0, 0]","[1.6832677999991574, 2.5957214000009117]","[None, 'Target']",THREE,1,2025-10-03_08h41.12.152,Visual Search Experiment,,2025.1.1,60.25657249,2025-10-03 08h41.20.661807 +0530
57,0,57,"[np.float64(0.3541666666666667), np.float64(0.33194444444444443)]","[np.float64(-0.11527777777777778), np.float64(-0.10833333333333334)]","[1, 1]","[0, 0]","[0, 0]","[1.7856017000012798, 2.5689802000051714]","[None, 'Target']",57,0,57,0,105.7391484,,5,105.7208232,105.7391484,105.7391484,0.0139649,108.289986,"[np.float64(0.3541666666666667), np.float64(0.33194444444444443)]","[np.float64(-0.11527777777777778), np.float64(-0.10833333333333334)]","[1, 1]","[0, 0]","[0, 0]","[1.7856017000012798, 2.5689802000051714]","[None, 'Target']",THREE,1,2025-10-03_08h41.12.152,Visual Search Experiment,,2025.1.1,60.25657249,2025-10-03 08h41.20.661807 +0530
58,0,58,[np.float64(-0.35833333333333334)],[np.float64(-0.3597222222222222)],[1],[0],[0],[1.46422110000276],['Target'],58,0,58,0,108.3214668,,10,108.3098863,108.3214668,108.3214668,0.0197862,109.7742575,[np.float64(-0.35833333333333334)],[np.float64(-0.3597222222222222)],[1],[0],[0],[1.46422110000276],['Target'],THREE,1,2025-10-03_08h41.12.152,Visual Search Experiment,,2025.1.1,60.25657249,2025-10-03 08h41.20.661807 +0530
59,0,59,[np.float64(-0.14166666666666666)],[np.float64(-0.2972222222222222)],[1],[0],[0],[2.2222781000018585],['Target'],59,0,59,0,109.805087,,5,109.7838091,109.805087,109.805087,0.0094443,112.0062244,[np.float64(-0.14166666666666666)],[np.float64(-0.2972222222222222)],[1],[0],[0],[2.2222781000018585],['Target'],THREE,1,2025-10-03_08h41.12.152,Visual Search Experiment,,2025.1.1,60.25657249,2025-10-03 08h41.20.661807 +0530
60,0,60,[np.float64(-0.3527777777777778)],[np.float64(0.30277777777777776)],[1],[0],[0],[1.3077811999974074],['Target'],60,0,60,0,112.0374253,,5,112.0166485,112.0374253,112.0374253,0.010334,113.3246019,[np.float64(-0.3527777777777778)],[np.float64(0.30277777777777776)],[1],[0],[0],[1.3077811999974074],['Target'],THREE,1,2025-10-03_08h41.12.152,Visual Search Experiment,,2025.1.1,60.25657249,2025-10-03 08h41.20.661807 +0530
61,0,61,[np.float64(-0.4152777777777778)],[np.float64(0.058333333333333334)],[1],[0],[0],[1.2336169999980484],['Target'],61,0,61,0,113.3544379,,5,113.3393323,113.3544379,113.3544379,0.0146066,114.5731602,[np.float64(-0.4152777777777778)],[np.float64(0.058333333333333334)],[1],[0],[0],[1.2336169999980484],['Target'],THREE,1,2025-10-03_08h41.12.152,Visual Search Experiment,,2025.1.1,60.25657249,2025-10-03 08h41.20.661807 +0530
62,0,62,[np.float64(0.15694444444444444)],[np.float64(-0.19305555555555556)],[1],[0],[0],[1.524468000003253],['Target'],62,0,62,0,114.6042265,,5,114.5814516,114.6042265,114.6042265,0.0081362,116.1060471,[np.float64(0.15694444444444444)],[np.float64(-0.19305555555555556)],[1],[0],[0],[1.524468000003253],['Target'],THREE,1,2025-10-03_08h41.12.152,Visual Search Experiment,,2025.1.1,60.25657249,2025-10-03 08h41.20.661807 +0530
63,0,63,[np.float64(0.19166666666666668)],[np.float64(0.19722222222222222)],[1],[0],[0],[1.2915632000003825],['Target'],63,0,63,0,116.1369108,,5,116.1145275,116.1369108,116.1369108,0.0084026,117.4062294,[np.float64(0.19166666666666668)],[np.float64(0.19722222222222222)],[1],[0],[0],[1.2915632000003825],['Target'],THREE,1,2025-10-03_08h41.12.152,Visual Search Experiment,,2025.1.1,60.25657249,2025-10-03 08h41.20.661807 +0530
64,0,64,[np.float64(-0.41388888888888886)],[np.float64(0.3638888888888889)],[1],[0],[0],[2.207478700001957],['Target'],64,0,64,0,117.4372705,,5,117.4156939,117.4372705,117.4372705,0.0093792,119.6233218,[np.float64(-0.41388888888888886)],[np.float64(0.3638888888888889)],[1],[0],[0],[2.207478700001957],['Target'],THREE,1,2025-10-03_08h41.12.152,Visual Search Experiment,,2025.1.1,60.25657249,2025-10-03 08h41.20.661807 +0530
65,0,65,"[np.float64(-0.3861111111111111), np.float64(-0.37777777777777777)]","[np.float64(0.05138888888888889), np.float64(0.044444444444444446)]","[1, 1]","[0, 0]","[0, 0]","[1.5444962999972631, 3.4100528999988455]","[None, 'Target']",65,0,65,0,119.6708753,,10,119.6463517,119.6708753,119.6708753,0.0229295,123.0565579,"[np.float64(-0.3861111111111111), np.float64(-0.37777777777777777)]","[np.float64(0.05138888888888889), np.float64(0.044444444444444446)]","[1, 1]","[0, 0]","[0, 0]","[1.5444962999972631, 3.4100528999988455]","[None, 'Target']",THREE,1,2025-10-03_08h41.12.152,Visual Search Experiment,,2025.1.1,60.25657249,2025-10-03 08h41.20.661807 +0530
66,0,66,[np.float64(0.009722222222222222)],[np.float64(-0.2625)],[1],[0],[0],[1.2862906000009389],['Target'],66,0,66,0,123.0863029,,5,123.0691569,123.0863029,123.0863029,0.0124659,124.3555826,[np.float64(0.009722222222222222)],[np.float64(-0.2625)],[1],[0],[0],[1.2862906000009389],['Target'],THREE,1,2025-10-03_08h41.12.152,Visual Search Experiment,,2025.1.1,60.25657249,2025-10-03 08h41.20.661807 +0530
67,0,67,[np.float64(-0.0875)],[np.float64(-0.125)],[1],[0],[0],[1.2591880000036326],['Target'],67,0,67,0,124.3861026,,5,124.3640737,124.3861026,124.3861026,0.0084116,125.6234761,[np.float64(-0.0875)],[np.float64(-0.125)],[1],[0],[0],[1.2591880000036326],['Target'],THREE,1,2025-10-03_08h41.12.152,Visual Search Experiment,,2025.1.1,60.25657249,2025-10-03 08h41.20.661807 +0530
68,0,68,[np.float64(-0.16944444444444445)],[np.float64(-0.48194444444444445)],[1],[0],[0],[1.5664214000062202],['Target'],68,0,68,0,125.652948,,5,125.6383175,125.652948,125.652948,0.0146675,127.2048873,[np.float64(-0.16944444444444445)],[np.float64(-0.48194444444444445)],[1],[0],[0],[1.5664214000062202],['Target'],THREE,1,2025-10-03_08h41.12.152,Visual Search Experiment,,2025.1.1,60.25657249,2025-10-03 08h41.20.661807 +0530
69,0,69,[np.float64(-0.044444444444444446)],[np.float64(-0.11944444444444445)],[1],[0],[0],[1.2781878000023426],['Target'],69,0,69,0,127.2361673,,5,127.214095,127.2361673,127.2361673,0.0091126,128.4924681,[np.float64(-0.044444444444444446)],[np.float64(-0.11944444444444445)],[1],[0],[0],[1.2781878000023426],['Target'],THREE,1,2025-10-03_08h41.12.152,Visual Search Experiment,,2025.1.1,60.25657249,2025-10-03 08h41.20.661807 +0530
70,0,70,[np.float64(-0.10833333333333334)],[np.float64(-0.06527777777777778)],[1],[0],[0],[1.4946094999977504],['Target'],70,0,70,0,128.5190317,,5,128.5102812,128.5190317,128.5190317,0.0176772,130.0050568,[np.float64(-0.10833333333333334)],[np.float64(-0.06527777777777778)],[1],[0],[0],[1.4946094999977504],['Target'],THREE,1,2025-10-03_08h41.12.152,Visual Search Experiment,,2025.1.1,60.25657249,2025-10-03 08h41.20.661807 +0530
71,0,71,[np.float64(-0.31527777777777777)],[np.float64(-0.1388888888888889)],[1],[0],[0],[1.6929023999982746],['Target'],71,0,71,0,130.0535383,,10,130.0285407,130.0535383,130.0535383,0.0233954,131.7215945,[np.float64(-0.31527777777777777)],[np.float64(-0.1388888888888889)],[1],[0],[0],[1.6929023999982746],['Target'],THREE,1,2025-10-03_08h41.12.152,Visual Search Experiment,,2025.1.1,60.25657249,2025-10-03 08h41.20.661807 +0530
72,0,72,[np.float64(0.32222222222222224)],[np.float64(-0.03888888888888889)],[1],[0],[0],[3.0637624000009964],['Target'],72,0,72,0,131.7520508,,10,131.7410666,131.7520508,131.7520508,0.0193574,134.8049785,[np.float64(0.32222222222222224)],[np.float64(-0.03888888888888889)],[1],[0],[0],[3.0637624000009964],['Target'],THREE,1,2025-10-03_08h41.12.152,Visual Search Experiment,,2025.1.1,60.25657249,2025-10-03 08h41.20.661807 +0530
73,0,73,[np.float64(0.25972222222222224)],[np.float64(-0.0625)],[1],[0],[0],[1.175287500002014],['Target'],73,0,73,0,134.8559614,,10,134.8296119,134.8559614,134.8559614,0.0245495,136.0052038,[np.float64(0.25972222222222224)],[np.float64(-0.0625)],[1],[0],[0],[1.175287500002014],['Target'],THREE,1,2025-10-03_08h41.12.152,Visual Search Experiment,,2025.1.1,60.25657249,2025-10-03 08h41.20.661807 +0530
74,0,74,"[np.float64(-0.030555555555555555), np.float64(-0.05138888888888889)]","[np.float64(-0.46111111111111114), np.float64(-0.4625)]","[1, 1]","[0, 0]","[0, 0]","[1.2990820999984862, 2.2464255999948364]","[None, 'Target']",74,0,74,0,136.0357274,,10,136.0236484,136.0357274,136.0357274,0.0183288,138.2702069,"[np.float64(-0.030555555555555555), np.float64(-0.05138888888888889)]","[np.float64(-0.46111111111111114), np.float64(-0.4625)]","[1, 1]","[0, 0]","[0, 0]","[1.2990820999984862, 2.2464255999948364]","[None, 'Target']",THREE,1,2025-10-03_08h41.12.152,Visual Search Experiment,,2025.1.1,60.25657249,2025-10-03 08h41.20.661807 +0530
75,0,75,[np.float64(-0.022222222222222223)],[np.float64(0.15555555555555556)],[1],[0],[0],[1.808861600002274],['Target'],75,0,75,0,138.3014859,,5,138.2789052,138.3014859,138.3014859,0.0085786,140.0879027,[np.float64(-0.022222222222222223)],[np.float64(0.15555555555555556)],[1],[0],[0],[1.808861600002274],['Target'],THREE,1,2025-10-03_08h41.12.152,Visual Search Experiment,,2025.1.1,60.25657249,2025-10-03 08h41.20.661807 +0530
76,0,76,"[np.float64(0.0625), np.float64(0.05555555555555555)]","[np.float64(0.3125), np.float64(0.29583333333333334)]","[1, 1]","[0, 0]","[0, 0]","[1.6539335000052233, 2.4369320000041625]","[None, 'Target']",76,0,76,0,140.1185522,,5,140.0996532,140.1185522,140.1185522,0.0116543,142.5367434,"[np.float64(0.0625), np.float64(0.05555555555555555)]","[np.float64(0.3125), np.float64(0.29583333333333334)]","[1, 1]","[0, 0]","[0, 0]","[1.6539335000052233, 2.4369320000041625]","[None, 'Target']",THREE,1,2025-10-03_08h41.12.152,Visual Search Experiment,,2025.1.1,60.25657249,2025-10-03 08h41.20.661807 +0530
77,0,77,[np.float64(-0.16944444444444445)],[np.float64(0.25)],[1],[0],[0],[1.5641175999990082],['Target'],77,0,77,0,142.5675702,,10,142.5562768,142.5675702,142.5675702,0.0194342,144.1205642,[np.float64(-0.16944444444444445)],[np.float64(0.25)],[1],[0],[0],[1.5641175999990082],['Target'],THREE,1,2025-10-03_08h41.12.152,Visual Search Experiment,,2025.1.1,60.25657249,2025-10-03 08h41.20.661807 +0530
78,0,78,[np.float64(-0.3347222222222222)],[np.float64(0.2)],[1],[0],[0],[1.8366432999973767],['Target'],78,0,78,0,144.1517778,,5,144.1347136,144.1517778,144.1517778,0.0140105,145.9716215,[np.float64(-0.3347222222222222)],[np.float64(0.2)],[1],[0],[0],[1.8366432999973767],['Target'],THREE,1,2025-10-03_08h41.12.152,Visual Search Experiment,,2025.1.1,60.25657249,2025-10-03 08h41.20.661807 +0530
79,0,79,[np.float64(0.2263888888888889)],[np.float64(-0.09861111111111111)],[1],[0],[0],[1.594950600003358],['Target'],79,0,79,0,146.0012344,,5,145.9916523,146.0012344,146.0012344,0.01984,147.5867613,[np.float64(0.2263888888888889)],[np.float64(-0.09861111111111111)],[1],[0],[0],[1.594950600003358],['Target'],THREE,1,2025-10-03_08h41.12.152,Visual Search Experiment,,2025.1.1,60.25657249,2025-10-03 08h41.20.661807 +0530
80,0,80,[np.float64(0.041666666666666664)],[np.float64(0.1388888888888889)],[1],[0],[0],[1.5136406999954488],['Target'],80,0,80,0,147.6170873,,10,147.6062834,147.6170873,147.6170873,0.0194193,149.1200609,[np.float64(0.041666666666666664)],[np.float64(0.1388888888888889)],[1],[0],[0],[1.5136406999954488],['Target'],THREE,1,2025-10-03_08h41.12.152,Visual Search Experiment,,2025.1.1,60.25657249,2025-10-03 08h41.20.661807 +0530
81,0,81,[np.float64(0.42916666666666664)],[np.float64(-0.4013888888888889)],[1],[0],[0],[2.3644606999951066],['Target'],81,0,81,0,149.1503299,,10,149.1391665,149.1503299,149.1503299,0.0190072,151.5038041,[np.float64(0.42916666666666664)],[np.float64(-0.4013888888888889)],[1],[0],[0],[2.3644606999951066],['Target'],THREE,1,2025-10-03_08h41.12.152,Visual Search Experiment,,2025.1.1,60.25657249,2025-10-03 08h41.20.661807 +0530
82,0,82,[np.float64(-0.002777777777777778)],[np.float64(0.13333333333333333)],[1],[0],[0],[1.589842300003511],['Target'],82,0,82,0,151.5335782,,5,151.5141178,151.5335782,151.5335782,0.0101693,153.1041435,[np.float64(-0.002777777777777778)],[np.float64(0.13333333333333333)],[1],[0],[0],[1.589842300003511],['Target'],THREE,1,2025-10-03_08h41.12.152,Visual Search Experiment,,2025.1.1,60.25657249,2025-10-03 08h41.20.661807 +0530
83,0,83,[np.float64(-0.22361111111111112)],[np.float64(0.3861111111111111)],[1],[0],[0],[1.7608622000043397],['Target'],83,0,83,0,153.1510746,,10,153.1260254,153.1510746,153.1510746,0.0217611,154.8870501,[np.float64(-0.22361111111111112)],[np.float64(0.3861111111111111)],[1],[0],[0],[1.7608622000043397],['Target'],THREE,1,2025-10-03_08h41.12.152,Visual Search Experiment,,2025.1.1,60.25657249,2025-10-03 08h41.20.661807 +0530
84,0,84,"[np.float64(-0.22361111111111112), np.float64(0.06111111111111111)]","[np.float64(0.3861111111111111), np.float64(0.25833333333333336)]","[1, 1]","[0, 0]","[0, 0]","[0.37786689999484224, 2.5774858000004315]","[None, 'Target']",84,0,84,0,154.9340834,,10,154.9073717,154.9340834,154.9340834,0.0202116,157.4850205,"[np.float64(-0.22361111111111112), np.float64(0.06111111111111111)]","[np.float64(0.3861111111111111), np.float64(0.25833333333333336)]","[1, 1]","[0, 0]","[0, 0]","[0.37786689999484224, 2.5774858000004315]","[None, 'Target']",THREE,1,2025-10-03_08h41.12.152,Visual Search Experiment,,2025.1.1,60.25657249,2025-10-03 08h41.20.661807 +0530
85,0,85,[np.float64(0.21388888888888888)],[np.float64(-0.31805555555555554)],[1],[0],[0],[2.2391024000025936],['Target'],85,0,85,0,157.5203796,,5,157.4964118,157.5203796,157.5203796,0.0112654,159.7356684,[np.float64(0.21388888888888888)],[np.float64(-0.31805555555555554)],[1],[0],[0],[2.2391024000025936],['Target'],THREE,1,2025-10-03_08h41.12.152,Visual Search Experiment,,2025.1.1,60.25657249,2025-10-03 08h41.20.661807 +0530
86,0,86,[np.float64(0.41805555555555557)],[np.float64(0.059722222222222225)],[1],[0],[0],[1.90697899999941],['Target'],86,0,86,0,159.7672289,,5,159.7447148,159.7672289,159.7672289,0.0089603,161.6518393,[np.float64(0.41805555555555557)],[np.float64(0.059722222222222225)],[1],[0],[0],[1.90697899999941],['Target'],THREE,1,2025-10-03_08h41.12.152,Visual Search Experiment,,2025.1.1,60.25657249,2025-10-03 08h41.20.661807 +0530
87,0,87,"[np.float64(0.5680555555555555), np.float64(0.001388888888888889)]","[np.float64(0.49444444444444446), np.float64(0.013888888888888888)]","[1, 1]","[0, 0]","[0, 0]","[7.111254700001155, 9.426354700000957]","[None, 'Target']",87,0,87,0,161.7000116,,10,161.6742668,161.7000116,161.7000116,0.0223212,171.1007715,"[np.float64(0.5680555555555555), np.float64(0.001388888888888889)]","[np.float64(0.49444444444444446), np.float64(0.013888888888888888)]","[1, 1]","[0, 0]","[0, 0]","[7.111254700001155, 9.426354700000957]","[None, 'Target']",THREE,1,2025-10-03_08h41.12.152,Visual Search Experiment,,2025.1.1,60.25657249,2025-10-03 08h41.20.661807 +0530
88,0,88,[np.float64(-0.125)],[np.float64(-0.15555555555555556)],[1],[0],[0],[1.5672855000011623],['Target'],88,0,88,0,171.1316195,,10,171.1175791,171.1316195,171.1316195,0.0166788,172.6850005,[np.float64(-0.125)],[np.float64(-0.15555555555555556)],[1],[0],[0],[1.5672855000011623],['Target'],THREE,1,2025-10-03_08h41.12.152,Visual Search Experiment,,2025.1.1,60.25657249,2025-10-03 08h41.20.661807 +0530
89,0,89,[np.float64(-0.4708333333333333)],[np.float64(-0.22916666666666666)],[1],[0],[0],[1.4227723000003607],['Target'],89,0,89,0,172.7148044,,5,172.6946019,172.7148044,172.7148044,0.0095026,174.1175136,[np.float64(-0.4708333333333333)],[np.float64(-0.22916666666666666)],[1],[0],[0],[1.4227723000003607],['Target'],THREE,1,2025-10-03_08h41.12.152,Visual Search Experiment,,2025.1.1,60.25657249,2025-10-03 08h41.20.661807 +0530
90,0,90,[np.float64(0.2569444444444444)],[np.float64(0.03888888888888889)],[1],[0],[0],[1.3227143999974942],['Target'],90,0,90,0,174.1479346,,5,174.126884,174.1479346,174.1479346,0.0092875,175.4497822,[np.float64(0.2569444444444444)],[np.float64(0.03888888888888889)],[1],[0],[0],[1.3227143999974942],['Target'],THREE,1,2025-10-03_08h41.12.152,Visual Search Experiment,,2025.1.1,60.25657249,2025-10-03 08h41.20.661807 +0530
91,0,91,[np.float64(-0.20833333333333334)],[np.float64(-0.4791666666666667)],[1],[0],[0],[1.2746437000023434],['Target'],91,0,91,0,175.4812637,,5,175.4591769,175.4812637,175.4812637,0.0092618,176.7339491,[np.float64(-0.20833333333333334)],[np.float64(-0.4791666666666667)],[1],[0],[0],[1.2746437000023434],['Target'],THREE,1,2025-10-03_08h41.12.152,Visual Search Experiment,,2025.1.1,60.25657249,2025-10-03 08h41.20.661807 +0530
92,0,92,[np.float64(0.35555555555555557)],[np.float64(0.34305555555555556)],[1],[0],[0],[1.379091900002095],['Target'],92,0,92,0,176.7641233,,10,176.7538695,176.7641233,176.7641233,0.0198397,178.1331018,[np.float64(0.35555555555555557)],[np.float64(0.34305555555555556)],[1],[0],[0],[1.379091900002095],['Target'],THREE,1,2025-10-03_08h41.12.152,Visual Search Experiment,,2025.1.1,60.25657249,2025-10-03 08h41.20.661807 +0530
93,0,93,[np.float64(-0.04861111111111111)],[np.float64(0.375)],[1],[0],[0],[1.964546800001699],['Target'],93,0,93,0,178.1641046,,10,178.1524671,178.1641046,178.1641046,0.0192679,180.1171483,[np.float64(-0.04861111111111111)],[np.float64(0.375)],[1],[0],[0],[1.964546800001699],['Target'],THREE,1,2025-10-03_08h41.12.152,Visual Search Experiment,,2025.1.1,60.25657249,2025-10-03 08h41.20.661807 +0530
94,0,94,"[np.float64(0.25972222222222224), np.float64(0.2625)]","[np.float64(-0.10694444444444444), np.float64(-0.12083333333333333)]","[1, 1]","[0, 0]","[0, 0]","[1.3248311000061221, 2.2909843000015826]","[None, 'Target']",94,0,94,0,180.1477652,,5,180.1254528,180.1477652,180.1477652,0.0082042,182.4165833,"[np.float64(0.25972222222222224), np.float64(0.2625)]","[np.float64(-0.10694444444444444), np.float64(-0.12083333333333333)]","[1, 1]","[0, 0]","[0, 0]","[1.3248311000061221, 2.2909843000015826]","[None, 'Target']",THREE,1,2025-10-03_08h41.12.152,Visual Search Experiment,,2025.1.1,60.25657249,2025-10-03 08h41.20.661807 +0530
95,0,95,[np.float64(0.4388888888888889)],[np.float64(0.03611111111111111)],[1],[0],[0],[1.1629860000030021],['Target'],95,0,95,0,182.4644615,,10,182.4375869,182.4644615,182.4644615,0.020893,183.6007471,[np.float64(0.4388888888888889)],[np.float64(0.03611111111111111)],[1],[0],[0],[1.1629860000030021],['Target'],THREE,1,2025-10-03_08h41.12.152,Visual Search Experiment,,2025.1.1,60.25657249,2025-10-03 08h41.20.661807 +0530
96,0,96,[np.float64(0.22777777777777777)],[np.float64(-0.48194444444444445)],[1],[0],[0],[1.874760899998364],['Target'],96,0,96,0,183.6482542,,10,183.6250258,183.6482542,183.6482542,0.0241138,185.4999516,[np.float64(0.22777777777777777)],[np.float64(-0.48194444444444445)],[1],[0],[0],[1.874760899998364],['Target'],THREE,1,2025-10-03_08h41.12.152,Visual Search Experiment,,2025.1.1,60.25657249,2025-10-03 08h41.20.661807 +0530
97,0,97,[np.float64(-0.4638888888888889)],[np.float64(0.21666666666666667)],[1],[0],[0],[1.255789000002551],['Target'],97,0,97,0,185.5306032,,5,185.5096601,185.5306032,185.5306032,0.009611,186.7655872,[np.float64(-0.4638888888888889)],[np.float64(0.21666666666666667)],[1],[0],[0],[1.255789000002551],['Target'],THREE,1,2025-10-03_08h41.12.152,Visual Search Experiment,,2025.1.1,60.25657249,2025-10-03 08h41.20.661807 +0530
98,0,98,[np.float64(0.3347222222222222)],[np.float64(-0.13194444444444445)],[1],[0],[0],[1.930417800002033],['Target'],98,0,98,0,186.7967774,,10,186.7847531,186.7967774,186.7967774,0.0191087,188.7153342,[np.float64(0.3347222222222222)],[np.float64(-0.13194444444444445)],[1],[0],[0],[1.930417800002033],['Target'],THREE,1,2025-10-03_08h41.12.152,Visual Search Experiment,,2025.1.1,60.25657249,2025-10-03 08h41.20.661807 +0530
99,0,99,[np.float64(0.016666666666666666)],[np.float64(0.3958333333333333)],[1],[0],[0],[1.3648639999955776],['Target'],99,0,99,0,188.7463296,,10,188.7340869,188.7463296,188.7463296,0.0186409,190.0990839,[np.float64(0.016666666666666666)],[np.float64(0.3958333333333333)],[1],[0],[0],[1.3648639999955776],['Target'],THREE,1,2025-10-03_08h41.12.152,Visual Search Experiment,,2025.1.1,60.25657249,2025-10-03 08h41.20.661807 +0530
100,0,100,[np.float64(-0.4777777777777778)],[np.float64(0.4722222222222222)],[1],[0],[0],[1.3247636999949464],['Target'],100,0,100,0,190.1303243,,5,190.1071239,190.1303243,190.1303243,0.0079426,191.4320202,[np.float64(-0.4777777777777778)],[np.float64(0.4722222222222222)],[1],[0],[0],[1.3247636999949464],['Target'],THREE,1,2025-10-03_08h41.12.152,Visual Search Experiment,,2025.1.1,60.25657249,2025-10-03 08h41.20.661807 +0530
101,0,101,[np.float64(-0.31666666666666665)],[np.float64(0.49027777777777776)],[1],[0],[0],[2.0503728999974555],['Target'],101,0,101,0,191.463917,,10,191.4487026,191.463917,191.463917,0.0165862,193.4992213,[np.float64(-0.31666666666666665)],[np.float64(0.49027777777777776)],[1],[0],[0],[2.0503728999974555],['Target'],THREE,1,2025-10-03_08h41.12.152,Visual Search Experiment,,2025.1.1,60.25657249,2025-10-03 08h41.20.661807 +0530
102,0,102,[np.float64(-0.4527777777777778)],[np.float64(0.12361111111111112)],[1],[0],[0],[2.742949799998314],['Target'],102,0,102,0,193.5476084,,10,193.522589,193.5476084,193.5476084,0.0232611,196.2656991,[np.float64(-0.4527777777777778)],[np.float64(0.12361111111111112)],[1],[0],[0],[2.742949799998314],['Target'],THREE,1,2025-10-03_08h41.12.152,Visual Search Experiment,,2025.1.1,60.25657249,2025-10-03 08h41.20.661807 +0530
103,0,103,"[np.float64(0.3055555555555556), np.float64(0.3277777777777778)]","[np.float64(0.10277777777777777), np.float64(0.10833333333333334)]","[1, 1]","[0, 0]","[0, 0]","[1.6954743999958737, 3.194296299996495]","[None, 'Target']",103,0,103,0,196.3149303,,10,196.2869188,196.3149303,196.3149303,0.0211022,199.4813649,"[np.float64(0.3055555555555556), np.float64(0.3277777777777778)]","[np.float64(0.10277777777777777), np.float64(0.10833333333333334)]","[1, 1]","[0, 0]","[0, 0]","[1.6954743999958737, 3.194296299996495]","[None, 'Target']",THREE,1,2025-10-03_08h41.12.152,Visual Search Experiment,,2025.1.1,60.25657249,2025-10-03 08h41.20.661807 +0530
104,0,104,"[np.float64(0.3277777777777778), np.float64(0.4041666666666667)]","[np.float64(0.10833333333333334), np.float64(-0.09444444444444444)]","[1, 1]","[0, 0]","[0, 0]","[0.15812089999963064, 1.2426693000015803]","[None, 'Target']",104,0,104,0,199.5303059,,10,199.5053698,199.5303059,199.5303059,0.0238732,200.7482158,"[np.float64(0.3277777777777778), np.float64(0.4041666666666667)]","[np.float64(0.10833333333333334), np.float64(-0.09444444444444444)]","[1, 1]","[0, 0]","[0, 0]","[0.15812089999963064, 1.2426693000015803]","[None, 'Target']",THREE,1,2025-10-03_08h41.12.152,Visual Search Experiment,,2025.1.1,60.25657249,2025-10-03 08h41.20.661807 +0530
105,0,105,[np.float64(-0.034722222222222224)],[np.float64(0.4930555555555556)],[1],[0],[0],[2.136746399999538],['Target'],105,0,105,0,200.7795319,,5,200.7606122,200.7795319,200.7795319,0.0122559,202.8975149,[np.float64(-0.034722222222222224)],[np.float64(0.4930555555555556)],[1],[0],[0],[2.136746399999538],['Target'],THREE,1,2025-10-03_08h41.12.152,Visual Search Experiment,,2025.1.1,60.25657249,2025-10-03 08h41.20.661807 +0530
106,0,106,[np.float64(-0.15416666666666667)],[np.float64(0.33611111111111114)],[1],[0],[0],[1.8246555000005173],['Target'],106,0,106,0,202.9284268,,5,202.9056817,202.9284268,202.9284268,0.0080865,204.7304665,[np.float64(-0.15416666666666667)],[np.float64(0.33611111111111114)],[1],[0],[0],[1.8246555000005173],['Target'],THREE,1,2025-10-03_08h41.12.152,Visual Search Experiment,,2025.1.1,60.25657249,2025-10-03 08h41.20.661807 +0530
107,0,107,[np.float64(0.40555555555555556)],[np.float64(-0.46944444444444444)],[1],[0],[0],[1.7904422999999952],['Target'],107,0,107,0,204.7617424,,5,204.740429,204.7617424,204.7617424,0.0098821,206.5310264,[np.float64(0.40555555555555556)],[np.float64(-0.46944444444444444)],[1],[0],[0],[1.7904422999999952],['Target'],THREE,1,2025-10-03_08h41.12.152,Visual Search Experiment,,2025.1.1,60.25657249,2025-10-03 08h41.20.661807 +0530
108,0,108,[np.float64(0.21944444444444444)],[np.float64(0.4041666666666667)],[1],[0],[0],[2.158766200001992],['Target'],108,0,108,0,206.578973,,10,206.5554493,206.578973,206.578973,0.0243358,208.7143799,[np.float64(0.21944444444444444)],[np.float64(0.4041666666666667)],[1],[0],[0],[2.158766200001992],['Target'],THREE,1,2025-10-03_08h41.12.152,Visual Search Experiment,,2025.1.1,60.25657249,2025-10-03 08h41.20.661807 +0530
109,0,109,[np.float64(0.20833333333333334)],[np.float64(0.06527777777777778)],[1],[0],[0],[1.8406138999998802],['Target'],109,0,109,0,208.7445294,,5,208.7238015,208.7445294,208.7445294,0.0093107,210.5645704,[np.float64(0.20833333333333334)],[np.float64(0.06527777777777778)],[1],[0],[0],[1.8406138999998802],['Target'],THREE,1,2025-10-03_08h41.12.152,Visual Search Experiment,,2025.1.1,60.25657249,2025-10-03 08h41.20.661807 +0530
110,0,110,[np.float64(-0.38472222222222224)],[np.float64(0.12083333333333333)],[1],[0],[0],[1.5077024000056554],['Target'],110,0,110,0,210.6118405,,10,210.588333,210.6118405,210.6118405,0.0236491,212.0962044,[np.float64(-0.38472222222222224)],[np.float64(0.12083333333333333)],[1],[0],[0],[1.5077024000056554],['Target'],THREE,1,2025-10-03_08h41.12.152,Visual Search Experiment,,2025.1.1,60.25657249,2025-10-03 08h41.20.661807 +0530
111,0,111,[np.float64(-0.43194444444444446)],[np.float64(-0.08472222222222223)],[1],[0],[0],[1.2731114999987767],['Target'],111,0,111,0,212.1275669,,5,212.1068042,212.1275669,212.1275669,0.0105003,213.3800585,[np.float64(-0.43194444444444446)],[np.float64(-0.08472222222222223)],[1],[0],[0],[1.2731114999987767],['Target'],THREE,1,2025-10-03_08h41.12.152,Visual Search Experiment,,2025.1.1,60.25657249,2025-10-03 08h41.20.661807 +0530
112,0,112,[np.float64(-0.05416666666666667)],[np.float64(-0.39861111111111114)],[1],[0],[0],[1.3004619999992428],['Target'],112,0,112,0,213.4282814,,10,213.4125407,213.4282814,213.4282814,0.0324031,214.7131532,[np.float64(-0.05416666666666667)],[np.float64(-0.39861111111111114)],[1],[0],[0],[1.3004619999992428],['Target'],THREE,1,2025-10-03_08h41.12.152,Visual Search Experiment,,2025.1.1,60.25657249,2025-10-03 08h41.20.661807 +0530
113,0,113,[np.float64(0.4166666666666667)],[np.float64(-0.23472222222222222)],[1],[0],[0],[1.2475396000008914],['Target'],113,0,113,0,214.7438984,,10,214.7322401,214.7438984,214.7438984,0.0189817,215.9799214,[np.float64(0.4166666666666667)],[np.float64(-0.23472222222222222)],[1],[0],[0],[1.2475396000008914],['Target'],THREE,1,2025-10-03_08h41.12.152,Visual Search Experiment,,2025.1.1,60.25657249,2025-10-03 08h41.20.661807 +0530
114,0,114,[np.float64(0.0875)],[np.float64(0.2)],[1],[0],[0],[1.3610182999982499],['Target'],114,0,114,0,216.0108821,,5,215.9894712,216.0108821,216.0108821,0.0094332,217.3508065,[np.float64(0.0875)],[np.float64(0.2)],[1],[0],[0],[1.3610182999982499],['Target'],THREE,1,2025-10-03_08h41.12.152,Visual Search Experiment,,2025.1.1,60.25657249,2025-10-03 08h41.20.661807 +0530
115,0,115,[np.float64(-0.44583333333333336)],[np.float64(-0.03888888888888889)],[1],[0],[0],[1.6572454999986803],['Target'],115,0,115,0,217.4145347,,5,217.3795261,217.4145347,217.4145347,0.0284845,219.0372071,[np.float64(-0.44583333333333336)],[np.float64(-0.03888888888888889)],[1],[0],[0],[1.6572454999986803],['Target'],THREE,1,2025-10-03_08h41.12.152,Visual Search Experiment,,2025.1.1,60.25657249,2025-10-03 08h41.20.661807 +0530
116,0,116,[np.float64(0.2375)],[np.float64(-0.06527777777777778)],[1],[0],[0],[2.135720099999162],['Target'],116,0,116,0,219.1126946,,10,219.0795761,219.1126946,219.1126946,0.0420753,221.2155971,[np.float64(0.2375)],[np.float64(-0.06527777777777778)],[1],[0],[0],[2.135720099999162],['Target'],THREE,1,2025-10-03_08h41.12.152,Visual Search Experiment,,2025.1.1,60.25657249,2025-10-03 08h41.20.661807 +0530
117,0,117,[np.float64(0.2902777777777778)],[np.float64(0.06944444444444445)],[1],[0],[0],[1.031233699999575],['Target'],117,0,117,0,221.2613883,,10,221.2476634,221.2613883,221.2613883,0.0318493,222.2790862,[np.float64(0.2902777777777778)],[np.float64(0.06944444444444445)],[1],[0],[0],[1.031233699999575],['Target'],THREE,1,2025-10-03_08h41.12.152,Visual Search Experiment,,2025.1.1,60.25657249,2025-10-03 08h41.20.661807 +0530
118,0,118,[np.float64(-0.2708333333333333)],[np.float64(0.0125)],[1],[0],[0],[1.6547280000013416],['Target'],118,0,118,0,222.3105091,,5,222.2917629,222.3105091,222.3105091,0.0125544,223.9466725,[np.float64(-0.2708333333333333)],[np.float64(0.0125)],[1],[0],[0],[1.6547280000013416],['Target'],THREE,1,2025-10-03_08h41.12.152,Visual Search Experiment,,2025.1.1,60.25657249,2025-10-03 08h41.20.661807 +0530
119,0,119,[np.float64(-0.4125)],[np.float64(0.38472222222222224)],[1],[0],[0],[1.7687600999997812],['Target'],119,0,119,0,223.9771022,,5,223.9616438,223.9771022,223.9771022,0.0148601,225.7306335,[np.float64(-0.4125)],[np.float64(0.38472222222222224)],[1],[0],[0],[1.7687600999997812],['Target'],THREE,1,2025-10-03_08h41.12.152,Visual Search Experiment,,2025.1.1,60.25657249,2025-10-03 08h41.20.661807 +0530
120,0,120,[np.float64(-0.2875)],[np.float64(-0.04583333333333333)],[1],[0],[0],[1.610098500001186],['Target'],120,0,120,0,225.7939369,,10,225.7699145,225.7939369,225.7939369,0.0391059,227.3802569,[np.float64(-0.2875)],[np.float64(-0.04583333333333333)],[1],[0],[0],[1.610098500001186],['Target'],THREE,1,2025-10-03_08h41.12.152,Visual Search Experiment,,2025.1.1,60.25657249,2025-10-03 08h41.20.661807 +0530
121,0,121,[np.float64(-0.26944444444444443)],[np.float64(-0.17916666666666667)],[1],[0],[0],[1.720704300001671],['Target'],121,0,121,0,227.4628925,,10,227.4252448,227.4628925,227.4628925,0.0447794,229.1462337,[np.float64(-0.26944444444444443)],[np.float64(-0.17916666666666667)],[1],[0],[0],[1.720704300001671],['Target'],THREE,1,2025-10-03_08h41.12.152,Visual Search Experiment,,2025.1.1,60.25657249,2025-10-03 08h41.20.661807 +0530
122,0,122,[np.float64(0.06944444444444445)],[np.float64(0.020833333333333332)],[1],[0],[0],[1.4841744000004837],['Target'],122,0,122,0,229.1969079,,10,229.1766721,229.1969079,229.1969079,0.0302688,230.6610177,[np.float64(0.06944444444444445)],[np.float64(0.020833333333333332)],[1],[0],[0],[1.4841744000004837],['Target'],THREE,1,2025-10-03_08h41.12.152,Visual Search Experiment,,2025.1.1,60.25657249,2025-10-03 08h41.20.661807 +0530
123,0,123,"[np.float64(0.2777777777777778), np.float64(0.29583333333333334)]","[np.float64(0.11527777777777778), np.float64(0.11388888888888889)]","[1, 1]","[0, 0]","[0, 0]","[2.0240537999998196, 3.4064274999982445]","[None, 'Target']",123,0,123,0,230.696055,,5,230.6724582,230.696055,230.696055,0.0113252,234.0790939,"[np.float64(0.2777777777777778), np.float64(0.29583333333333334)]","[np.float64(0.11527777777777778), np.float64(0.11388888888888889)]","[1, 1]","[0, 0]","[0, 0]","[2.0240537999998196, 3.4064274999982445]","[None, 'Target']",THREE,1,2025-10-03_08h41.12.152,Visual Search Experiment,,2025.1.1,60.25657249,2025-10-03 08h41.20.661807 +0530
124,0,124,[np.float64(-0.10694444444444444)],[np.float64(-0.39166666666666666)],[1],[0],[0],[1.4785865000012564],['Target'],124,0,124,0,234.1270642,,5,234.0990939,234.1270642,234.1270642,0.0198147,235.5778988,[np.float64(-0.10694444444444444)],[np.float64(-0.39166666666666666)],[1],[0],[0],[1.4785865000012564],['Target'],THREE,1,2025-10-03_08h41.12.152,Visual Search Experiment,,2025.1.1,60.25657249,2025-10-03 08h41.20.661807 +0530
125,0,125,[np.float64(-0.3277777777777778)],[np.float64(0.4736111111111111)],[1],[0],[0],[2.5873092000038014],['Target'],125,0,125,0,235.6098823,,5,235.5903037,235.6098823,235.6098823,0.0123104,238.1777873,[np.float64(-0.3277777777777778)],[np.float64(0.4736111111111111)],[1],[0],[0],[2.5873092000038014],['Target'],THREE,1,2025-10-03_08h41.12.152,Visual Search Experiment,,2025.1.1,60.25657249,2025-10-03 08h41.20.661807 +0530
126,0,126,[np.float64(-0.2847222222222222)],[np.float64(-0.35)],[1],[0],[0],[2.4265678000010666],['Target'],126,0,126,0,238.2260463,,10,238.2009457,238.2260463,238.2260463,0.0230807,240.6277062,[np.float64(-0.2847222222222222)],[np.float64(-0.35)],[1],[0],[0],[2.4265678000010666],['Target'],THREE,1,2025-10-03_08h41.12.152,Visual Search Experiment,,2025.1.1,60.25657249,2025-10-03 08h41.20.661807 +0530
127,0,127,[np.float64(0.05277777777777778)],[np.float64(0.32083333333333336)],[1],[0],[0],[4.885226099999272],['Target'],127,0,127,0,240.676226,,10,240.6591093,240.676226,240.676226,0.0312515,245.5445066,[np.float64(0.05277777777777778)],[np.float64(0.32083333333333336)],[1],[0],[0],[4.885226099999272],['Target'],THREE,1,2025-10-03_08h41.12.152,Visual Search Experiment,,2025.1.1,60.25657249,2025-10-03 08h41.20.661807 +0530
128,0,128,[np.float64(-0.39166666666666666)],[np.float64(0.018055555555555554)],[1],[0],[0],[1.4602377000046545],['Target'],128,0,128,0,245.596476,,10,245.5668961,245.596476,245.596476,0.0222857,247.0273424,[np.float64(-0.39166666666666666)],[np.float64(0.018055555555555554)],[1],[0],[0],[1.4602377000046545],['Target'],THREE,1,2025-10-03_08h41.12.152,Visual Search Experiment,,2025.1.1,60.25657249,2025-10-03 08h41.20.661807 +0530
129,0,129,[np.float64(0.29583333333333334)],[np.float64(0.38333333333333336)],[1],[0],[0],[3.9036058000056073],['Target'],129,0,129,0,247.0578831,,5,247.0396986,247.0578831,247.0578831,0.0122031,250.9434726,[np.float64(0.29583333333333334)],[np.float64(0.38333333333333336)],[1],[0],[0],[3.9036058000056073],['Target'],THREE,1,2025-10-03_08h41.12.152,Visual Search Experiment,,2025.1.1,60.25657249,2025-10-03 08h41.20.661807 +0530
130,0,130,[np.float64(-0.2638888888888889)],[np.float64(0.4527777777777778)],[1],[0],[0],[1.413627699999779],['Target'],130,0,130,0,250.9915378,,10,250.965615,250.9915378,250.9915378,0.0220529,252.3794598,[np.float64(-0.2638888888888889)],[np.float64(0.4527777777777778)],[1],[0],[0],[1.413627699999779],['Target'],THREE,1,2025-10-03_08h41.12.152,Visual Search Experiment,,2025.1.1,60.25657249,2025-10-03 08h41.20.661807 +0530
131,0,131,[np.float64(-0.4722222222222222)],[np.float64(-0.16805555555555557)],[1],[0],[0],[1.3693350000030478],['Target'],131,0,131,0,252.4586486,,10,252.4240777,252.4586486,252.4586486,0.0444166,253.7936837,[np.float64(-0.4722222222222222)],[np.float64(-0.16805555555555557)],[1],[0],[0],[1.3693350000030478],['Target'],THREE,1,2025-10-03_08h41.12.152,Visual Search Experiment,,2025.1.1,60.25657249,2025-10-03 08h41.20.661807 +0530
132,0,132,[np.float64(-0.03333333333333333)],[np.float64(0.4486111111111111)],[1],[0],[0],[2.0553813000005903],['Target'],132,0,132,0,253.841026,,10,253.820918,253.841026,253.841026,0.0270906,255.8765043,[np.float64(-0.03333333333333333)],[np.float64(0.4486111111111111)],[1],[0],[0],[2.0553813000005903],['Target'],THREE,1,2025-10-03_08h41.12.152,Visual Search Experiment,,2025.1.1,60.25657249,2025-10-03 08h41.20.661807 +0530
133,0,133,[np.float64(0.4152777777777778)],[np.float64(-0.21666666666666667)],[1],[0],[0],[1.282803000001877],['Target'],133,0,133,0,255.9070844,,5,255.8942332,255.9070844,255.9070844,0.0175777,257.1772593,[np.float64(0.4152777777777778)],[np.float64(-0.21666666666666667)],[1],[0],[0],[1.282803000001877],['Target'],THREE,1,2025-10-03_08h41.12.152,Visual Search Experiment,,2025.1.1,60.25657249,2025-10-03 08h41.20.661807 +0530
134,0,134,[np.float64(0.4444444444444444)],[np.float64(-0.3055555555555556)],[1],[0],[0],[1.2322590000039781],['Target'],134,0,134,0,257.2082502,,5,257.1925954,257.2082502,257.2082502,0.0152333,258.42504,[np.float64(0.4444444444444444)],[np.float64(-0.3055555555555556)],[1],[0],[0],[1.2322590000039781],['Target'],THREE,1,2025-10-03_08h41.12.152,Visual Search Experiment,,2025.1.1,60.25657249,2025-10-03 08h41.20.661807 +0530
135,0,135,[np.float64(0.26944444444444443)],[np.float64(0.019444444444444445)],[1],[0],[0],[1.2787278999967384],['Target'],135,0,135,0,258.4739933,,10,258.4470071,258.4739933,258.4739933,0.0218508,259.725902,[np.float64(0.26944444444444443)],[np.float64(0.019444444444444445)],[1],[0],[0],[1.2787278999967384],['Target'],THREE,1,2025-10-03_08h41.12.152,Visual Search Experiment,,2025.1.1,60.25657249,2025-10-03 08h41.20.661807 +0530
136,0,136,[np.float64(0.059722222222222225)],[np.float64(0.13194444444444445)],[1],[0],[0],[1.2633907000054023],['Target'],136,0,136,0,259.7745403,,10,259.7460076,259.7745403,259.7745403,0.0199611,261.0095654,[np.float64(0.059722222222222225)],[np.float64(0.13194444444444445)],[1],[0],[0],[1.2633907000054023],['Target'],THREE,1,2025-10-03_08h41.12.152,Visual Search Experiment,,2025.1.1,60.25657249,2025-10-03 08h41.20.661807 +0530
137,0,137,[np.float64(0.10277777777777777)],[np.float64(-0.08333333333333333)],[1],[0],[0],[1.203912600001786],['Target'],137,0,137,0,261.0396599,,5,261.02041,261.0396599,261.0396599,0.0107254,262.2245088,[np.float64(0.10277777777777777)],[np.float64(-0.08333333333333333)],[1],[0],[0],[1.203912600001786],['Target'],THREE,1,2025-10-03_08h41.12.152,Visual Search Experiment,,2025.1.1,60.25657249,2025-10-03 08h41.20.661807 +0530
138,0,138,"[np.float64(-0.24861111111111112), np.float64(-0.2375)]","[np.float64(-0.11944444444444445), np.float64(-0.125)]","[1, 1]","[0, 0]","[0, 0]","[1.2240063999997801, 2.1400668999995105]","[None, 'Target']",138,0,138,0,262.2561878,,5,262.2344386,262.2561878,262.2561878,0.0098421,264.3746716,"[np.float64(-0.24861111111111112), np.float64(-0.2375)]","[np.float64(-0.11944444444444445), np.float64(-0.125)]","[1, 1]","[0, 0]","[0, 0]","[1.2240063999997801, 2.1400668999995105]","[None, 'Target']",THREE,1,2025-10-03_08h41.12.152,Visual Search Experiment,,2025.1.1,60.25657249,2025-10-03 08h41.20.661807 +0530
139,0,139,[np.float64(0.09444444444444444)],[np.float64(0.20555555555555555)],[1],[0],[0],[1.5145285999969929],['Target'],139,0,139,0,264.4057778,,10,264.3934493,264.4057778,264.4057778,0.0186825,265.9081625,[np.float64(0.09444444444444444)],[np.float64(0.20555555555555555)],[1],[0],[0],[1.5145285999969929],['Target'],THREE,1,2025-10-03_08h41.12.152,Visual Search Experiment,,2025.1.1,60.25657249,2025-10-03 08h41.20.661807 +0530
140,0,140,[np.float64(0.11527777777777778)],[np.float64(-0.23194444444444445)],[1],[0],[0],[1.379601000000548],['Target'],140,0,140,0,265.9611221,,10,265.9290875,265.9611221,265.9611221,0.0207511,267.3088411,[np.float64(0.11527777777777778)],[np.float64(-0.23194444444444445)],[1],[0],[0],[1.379601000000548],['Target'],THREE,1,2025-10-03_08h41.12.152,Visual Search Experiment,,2025.1.1,60.25657249,2025-10-03 08h41.20.661807 +0530
141,0,141,[np.float64(0.37222222222222223)],[np.float64(0.4236111111111111)],[1],[0],[0],[1.8138401999967755],['Target'],141,0,141,0,267.3386378,,10,267.3278005,267.3386378,267.3386378,0.0188455,269.1417885,[np.float64(0.37222222222222223)],[np.float64(0.4236111111111111)],[1],[0],[0],[1.8138401999967755],['Target'],THREE,1,2025-10-03_08h41.12.152,Visual Search Experiment,,2025.1.1,60.25657249,2025-10-03 08h41.20.661807 +0530
142,0,142,"[np.float64(0.3819444444444444), np.float64(0.4)]","[np.float64(-0.1), np.float64(-0.0875)]","[1, 1]","[0, 0]","[0, 0]","[1.2204561000035028, 2.2362846000032732]","[None, 'Target']",142,0,142,0,269.1725261,,5,269.1536917,269.1725261,269.1725261,0.0117947,271.3901435,"[np.float64(0.3819444444444444), np.float64(0.4)]","[np.float64(-0.1), np.float64(-0.0875)]","[1, 1]","[0, 0]","[0, 0]","[1.2204561000035028, 2.2362846000032732]","[None, 'Target']",THREE,1,2025-10-03_08h41.12.152,Visual Search Experiment,,2025.1.1,60.25657249,2025-10-03 08h41.20.661807 +0530
143,0,143,[np.float64(-0.07777777777777778)],[np.float64(-0.4625)],[1],[0],[0],[6.730748800000583],['Target'],143,0,143,0,271.4215748,,10,271.4096931,271.4215748,271.4215748,0.0194536,278.1406154,[np.float64(-0.07777777777777778)],[np.float64(-0.4625)],[1],[0],[0],[6.730748800000583],['Target'],THREE,1,2025-10-03_08h41.12.152,Visual Search Experiment,,2025.1.1,60.25657249,2025-10-03 08h41.20.661807 +0530
144,0,144,[np.float64(0.1)],[np.float64(0.2152777777777778)],[1],[0],[0],[1.237829800003965],['Target'],144,0,144,0,278.2058777,,10,278.1859943,278.2058777,278.2058777,0.0452878,279.4240567,[np.float64(0.1)],[np.float64(0.2152777777777778)],[1],[0],[0],[1.237829800003965],['Target'],THREE,1,2025-10-03_08h41.12.152,Visual Search Experiment,,2025.1.1,60.25657249,2025-10-03 08h41.20.661807 +0530
145,0,145,[np.float64(0.38472222222222224)],[np.float64(-0.25277777777777777)],[1],[0],[0],[1.6566050000037649],['Target'],145,0,145,0,279.4546485,,5,279.4355369,279.4546485,279.4546485,0.0114035,281.0923915,[np.float64(0.38472222222222224)],[np.float64(-0.25277777777777777)],[1],[0],[0],[1.6566050000037649],['Target'],THREE,1,2025-10-03_08h41.12.152,Visual Search Experiment,,2025.1.1,60.25657249,2025-10-03 08h41.20.661807 +0530
146,0,146,[np.float64(-0.25)],[np.float64(-0.1125)],[1],[0],[0],[1.3958991000035894],['Target'],146,0,146,0,281.1551205,,10,281.1275238,281.1551205,281.1551205,0.0349328,282.5235887,[np.float64(-0.25)],[np.float64(-0.1125)],[1],[0],[0],[1.3958991000035894],['Target'],THREE,1,2025-10-03_08h41.12.152,Visual Search Experiment,,2025.1.1,60.25657249,2025-10-03 08h41.20.661807 +0530
147,0,147,[np.float64(0.46111111111111114)],[np.float64(-0.1763888888888889)],[1],[0],[0],[1.2037228999979561],['Target'],147,0,147,0,282.5545241,,5,282.5356863,282.5545241,282.5545241,0.0119882,283.7395711,[np.float64(0.46111111111111114)],[np.float64(-0.1763888888888889)],[1],[0],[0],[1.2037228999979561],['Target'],THREE,1,2025-10-03_08h41.12.152,Visual Search Experiment,,2025.1.1,60.25657249,2025-10-03 08h41.20.661807 +0530
148,0,148,[np.float64(-0.4263888888888889)],[np.float64(0.18888888888888888)],[1],[0],[0],[1.1246782999951392],['Target'],148,0,148,0,283.7733449,,5,283.7486872,283.7733449,283.7733449,0.0090181,284.873503,[np.float64(-0.4263888888888889)],[np.float64(0.18888888888888888)],[1],[0],[0],[1.1246782999951392],['Target'],THREE,1,2025-10-03_08h41.12.152,Visual Search Experiment,,2025.1.1,60.25657249,2025-10-03 08h41.20.661807 +0530
149,0,149,[np.float64(-0.23194444444444445)],[np.float64(-0.28194444444444444)],[1],[0],[0],[1.3409963000012795],['Target'],149,0,149,0,284.9037795,,5,284.8825883,284.9037795,284.9037795,0.0090021,286.2237283,[np.float64(-0.23194444444444445)],[np.float64(-0.28194444444444444)],[1],[0],[0],[1.3409963000012795],['Target'],THREE,1,2025-10-03_08h41.12.152,Visual Search Experiment,,2025.1.1,60.25657249,2025-10-03 08h41.20.661807 +0530
150,0,150,[np.float64(0.45416666666666666)],[np.float64(0.17083333333333334)],[1],[0],[0],[1.404344200003834],['Target'],150,0,150,0,286.253799,,5,286.2354257,286.253799,286.253799,0.0116042,287.6399317,[np.float64(0.45416666666666666)],[np.float64(0.17083333333333334)],[1],[0],[0],[1.404344200003834],['Target'],THREE,1,2025-10-03_08h41.12.152,Visual Search Experiment,,2025.1.1,60.25657249,2025-10-03 08h41.20.661807 +0530
151,0,151,[np.float64(0.08055555555555556)],[np.float64(0.3541666666666667)],[1],[0],[0],[2.120081199995184],['Target'],151,0,151,0,287.6701909,,5,287.6528369,287.6701909,287.6701909,0.0128015,289.7730897,[np.float64(0.08055555555555556)],[np.float64(0.3541666666666667)],[1],[0],[0],[2.120081199995184],['Target'],THREE,1,2025-10-03_08h41.12.152,Visual Search Experiment,,2025.1.1,60.25657249,2025-10-03 08h41.20.661807 +0530
152,0,152,[np.float64(-0.11527777777777778)],[np.float64(-0.4375)],[1],[0],[0],[1.5918741999994381],['Target'],152,0,152,0,289.8036433,,5,289.7872343,289.8036433,289.8036433,0.0140482,291.3793487,[np.float64(-0.11527777777777778)],[np.float64(-0.4375)],[1],[0],[0],[1.5918741999994381],['Target'],THREE,1,2025-10-03_08h41.12.152,Visual Search Experiment,,2025.1.1,60.25657249,2025-10-03 08h41.20.661807 +0530
153,0,153,[np.float64(-0.2513888888888889)],[np.float64(0.03333333333333333)],[1],[0],[0],[1.122375099999772],['Target'],153,0,153,0,291.4377645,,10,291.4155789,291.4377645,291.4377645,0.0360905,292.5381231,[np.float64(-0.2513888888888889)],[np.float64(0.03333333333333333)],[1],[0],[0],[1.122375099999772],['Target'],THREE,1,2025-10-03_08h41.12.152,Visual Search Experiment,,2025.1.1,60.25657249,2025-10-03 08h41.20.661807 +0530
154,0,154,[np.float64(0.20972222222222223)],[np.float64(0.41388888888888886)],[1],[0],[0],[1.6220059000042966],['Target'],154,0,154,0,292.5700639,,5,292.5508157,292.5700639,292.5700639,0.0125734,294.1730104,[np.float64(0.20972222222222223)],[np.float64(0.41388888888888886)],[1],[0],[0],[1.6220059000042966],['Target'],THREE,1,2025-10-03_08h41.12.152,Visual Search Experiment,,2025.1.1,60.25657249,2025-10-03 08h41.20.661807 +0530
155,0,155,[np.float64(-0.25972222222222224)],[np.float64(-0.1986111111111111)],[1],[0],[0],[1.8079510000025039],['Target'],155,0,155,0,294.2202501,,10,294.1974792,294.2202501,294.2202501,0.0243866,296.0056211,[np.float64(-0.25972222222222224)],[np.float64(-0.1986111111111111)],[1],[0],[0],[1.8079510000025039],['Target'],THREE,1,2025-10-03_08h41.12.152,Visual Search Experiment,,2025.1.1,60.25657249,2025-10-03 08h41.20.661807 +0530
156,0,156,[np.float64(0.0375)],[np.float64(0.26805555555555555)],[1],[0],[0],[1.3060394000058295],['Target'],156,0,156,0,296.0536532,,10,296.0329746,296.0536532,296.0536532,0.0272142,297.3391954,[np.float64(0.0375)],[np.float64(0.26805555555555555)],[1],[0],[0],[1.3060394000058295],['Target'],THREE,1,2025-10-03_08h41.12.152,Visual Search Experiment,,2025.1.1,60.25657249,2025-10-03 08h41.20.661807 +0530
157,0,157,[np.float64(-0.19583333333333333)],[np.float64(0.275)],[1],[0],[0],[2.3851104999994277],['Target'],157,0,157,0,297.369379,,5,297.3536844,297.369379,297.369379,0.0143744,299.7389668,[np.float64(-0.19583333333333333)],[np.float64(0.275)],[1],[0],[0],[2.3851104999994277],['Target'],THREE,1,2025-10-03_08h41.12.152,Visual Search Experiment,,2025.1.1,60.25657249,2025-10-03 08h41.20.661807 +0530
158,0,158,"[np.float64(-0.20555555555555555), np.float64(-0.2125)]","[np.float64(-0.23472222222222222), np.float64(-0.2833333333333333)]","[1, 1]","[0, 0]","[0, 0]","[1.7552779000034207, 2.637595699998201]","[None, 'Target']",158,0,158,0,299.768842,,5,299.7501042,299.768842,299.768842,0.0110576,302.3878981,"[np.float64(-0.20555555555555555), np.float64(-0.2125)]","[np.float64(-0.23472222222222222), np.float64(-0.2833333333333333)]","[1, 1]","[0, 0]","[0, 0]","[1.7552779000034207, 2.637595699998201]","[None, 'Target']",THREE,1,2025-10-03_08h41.12.152,Visual Search Experiment,,2025.1.1,60.25657249,2025-10-03 08h41.20.661807 +0530
159,0,159,[np.float64(-0.006944444444444444)],[np.float64(0.41805555555555557)],[1],[0],[0],[1.6097809999992023],['Target'],159,0,159,0,302.4357813,,10,302.4120253,302.4357813,302.4357813,0.023983,304.0220314,[np.float64(-0.006944444444444444)],[np.float64(0.41805555555555557)],[1],[0],[0],[1.6097809999992023],['Target'],THREE,1,2025-10-03_08h41.12.152,Visual Search Experiment,,2025.1.1,60.25657249,2025-10-03 08h41.20.661807 +0530
160,0,160,"[np.float64(-0.1763888888888889), np.float64(-0.18888888888888888)]","[np.float64(-0.3625), np.float64(-0.35833333333333334)]","[1, 1]","[0, 0]","[0, 0]","[3.255293199996231, 4.885962000000291]","[None, 'Target']",160,0,160,0,304.0516345,,5,304.0345541,304.0516345,304.0516345,0.0123538,308.9206636,"[np.float64(-0.1763888888888889), np.float64(-0.18888888888888888)]","[np.float64(-0.3625), np.float64(-0.35833333333333334)]","[1, 1]","[0, 0]","[0, 0]","[3.255293199996231, 4.885962000000291]","[None, 'Target']",THREE,1,2025-10-03_08h41.12.152,Visual Search Experiment,,2025.1.1,60.25657249,2025-10-03 08h41.20.661807 +0530
161,0,161,[np.float64(-0.18333333333333332)],[np.float64(-0.4027777777777778)],[1],[0],[0],[1.3371547999995528],['Target'],161,0,161,0,308.9516107,,5,308.9330022,308.9516107,308.9516107,0.0122268,310.270351,[np.float64(-0.18333333333333332)],[np.float64(-0.4027777777777778)],[1],[0],[0],[1.3371547999995528],['Target'],THREE,1,2025-10-03_08h41.12.152,Visual Search Experiment,,2025.1.1,60.25657249,2025-10-03 08h41.20.661807 +0530
162,0,162,[np.float64(0.011111111111111112)],[np.float64(-0.12777777777777777)],[1],[0],[0],[1.9917430999994394],['Target'],162,0,162,0,310.319131,,10,310.2955969,310.319131,310.319131,0.0251444,312.2875121,[np.float64(0.011111111111111112)],[np.float64(-0.12777777777777777)],[1],[0],[0],[1.9917430999994394],['Target'],THREE,1,2025-10-03_08h41.12.152,Visual Search Experiment,,2025.1.1,60.25657249,2025-10-03 08h41.20.661807 +0530
163,0,163,[np.float64(-0.011111111111111112)],[np.float64(-0.14583333333333334)],[1],[0],[0],[1.92105299999821],['Target'],163,0,163,0,312.3176751,,5,312.3010941,312.3176751,312.3176751,0.0134179,314.2223856,[np.float64(-0.011111111111111112)],[np.float64(-0.14583333333333334)],[1],[0],[0],[1.92105299999821],['Target'],THREE,1,2025-10-03_08h41.12.152,Visual Search Experiment,,2025.1.1,60.25657249,2025-10-03 08h41.20.661807 +0530
164,0,164,[np.float64(-0.4444444444444444)],[np.float64(0.019444444444444445)],[1],[0],[0],[1.9691367999985232],['Target'],164,0,164,0,314.2508483,,5,314.2342438,314.2508483,314.2508483,0.0116988,316.2036099,[np.float64(-0.4444444444444444)],[np.float64(0.019444444444444445)],[1],[0],[0],[1.9691367999985232],['Target'],THREE,1,2025-10-03_08h41.12.152,Visual Search Experiment,,2025.1.1,60.25657249,2025-10-03 08h41.20.661807 +0530
165,0,165,"[np.float64(-0.24722222222222223), np.float64(-0.24861111111111112)]","[np.float64(0.2722222222222222), np.float64(0.2388888888888889)]","[1, 1]","[0, 0]","[0, 0]","[2.435934900000575, 3.4350921000004746]","[None, 'Target']",165,0,165,0,316.2351336,,5,316.2180705,316.2351336,316.2351336,0.0142961,319.653377,"[np.float64(-0.24722222222222223), np.float64(-0.24861111111111112)]","[np.float64(0.2722222222222222), np.float64(0.2388888888888889)]","[1, 1]","[0, 0]","[0, 0]","[2.435934900000575, 3.4350921000004746]","[None, 'Target']",THREE,1,2025-10-03_08h41.12.152,Visual Search Experiment,,2025.1.1,60.25657249,2025-10-03 08h41.20.661807 +0530
166,0,166,[np.float64(-0.013888888888888888)],[np.float64(-0.018055555555555554)],[1],[0],[0],[1.8194822000004933],['Target'],166,0,166,0,319.6840743,,5,319.6683767,319.6840743,319.6840743,0.0148686,321.4880564,[np.float64(-0.013888888888888888)],[np.float64(-0.018055555555555554)],[1],[0],[0],[1.8194822000004933],['Target'],THREE,1,2025-10-03_08h41.12.152,Visual Search Experiment,,2025.1.1,60.25657249,2025-10-03 08h41.20.661807 +0530
167,0,167,[np.float64(-0.4861111111111111)],[np.float64(-0.2125)],[1],[0],[0],[1.7318503000060446],['Target'],167,0,167,0,321.517705,,5,321.5044677,321.517705,321.517705,0.016302,323.2365104,[np.float64(-0.4861111111111111)],[np.float64(-0.2125)],[1],[0],[0],[1.7318503000060446],['Target'],THREE,1,2025-10-03_08h41.12.152,Visual Search Experiment,,2025.1.1,60.25657249,2025-10-03 08h41.20.661807 +0530
168,0,168,[np.float64(0.3013888888888889)],[np.float64(-0.08611111111111111)],[1],[0],[0],[1.469776300000376],['Target'],168,0,168,0,323.2847126,,10,323.2656158,323.2847126,323.2847126,0.0290229,324.7355978,[np.float64(0.3013888888888889)],[np.float64(-0.08611111111111111)],[1],[0],[0],[1.469776300000376],['Target'],THREE,1,2025-10-03_08h41.12.152,Visual Search Experiment,,2025.1.1,60.25657249,2025-10-03 08h41.20.661807 +0530
169,0,169,[np.float64(-0.027777777777777776)],[np.float64(0.28888888888888886)],[1],[0],[0],[1.3586284999983036],['Target'],169,0,169,0,324.7844978,,10,324.7631296,324.7844978,324.7844978,0.0273971,326.1220199,[np.float64(-0.027777777777777776)],[np.float64(0.28888888888888886)],[1],[0],[0],[1.3586284999983036],['Target'],THREE,1,2025-10-03_08h41.12.152,Visual Search Experiment,,2025.1.1,60.25657249,2025-10-03 08h41.20.661807 +0530
170,0,170,[np.float64(0.25833333333333336)],[np.float64(-0.4597222222222222)],[1],[0],[0],[1.510230900006718],['Target'],170,0,170,0,326.1682449,,5,326.1418224,326.1682449,326.1682449,0.0195852,327.6522876,[np.float64(0.25833333333333336)],[np.float64(-0.4597222222222222)],[1],[0],[0],[1.510230900006718],['Target'],THREE,1,2025-10-03_08h41.12.152,Visual Search Experiment,,2025.1.1,60.25657249,2025-10-03 08h41.20.661807 +0530
171,0,171,"[np.float64(0.4708333333333333), np.float64(0.49027777777777776), np.float64(0.4861111111111111)]","[np.float64(-0.35694444444444445), np.float64(-0.3375), np.float64(-0.35694444444444445)]","[1, 1, 1]","[0, 0, 0]","[0, 0, 0]","[1.9787693999969633, 3.5626151999967988, 5.3964873000004445]","[None, None, 'Target']",171,0,171,0,327.6830974,,10,327.6726112,327.6830974,327.6830974,0.020149,333.0692563,"[np.float64(0.4708333333333333), np.float64(0.49027777777777776), np.float64(0.4861111111111111)]","[np.float64(-0.35694444444444445), np.float64(-0.3375), np.float64(-0.35694444444444445)]","[1, 1, 1]","[0, 0, 0]","[0, 0, 0]","[1.9787693999969633, 3.5626151999967988, 5.3964873000004445]","[None, None, 'Target']",THREE,1,2025-10-03_08h41.12.152,Visual Search Experiment,,2025.1.1,60.25657249,2025-10-03 08h41.20.661807 +0530
172,0,172,[np.float64(0.3013888888888889)],[np.float64(-0.2375)],[1],[0],[0],[1.9122676000042702],['Target'],172,0,172,0,333.1174601,,10,333.090121,333.1174601,333.1174601,0.0207182,335.0025738,[np.float64(0.3013888888888889)],[np.float64(-0.2375)],[1],[0],[0],[1.9122676000042702],['Target'],THREE,1,2025-10-03_08h41.12.152,Visual Search Experiment,,2025.1.1,60.25657249,2025-10-03 08h41.20.661807 +0530
173,0,173,"[np.float64(0.2875), np.float64(0.2916666666666667)]","[np.float64(0.3972222222222222), np.float64(0.375)]","[1, 1]","[0, 0]","[0, 0]","[2.167183199999272, 4.568529899996065]","[None, 'Target']",173,0,173,0,335.0527965,,5,335.0340434,335.0527965,335.0527965,0.0312703,339.6028959,"[np.float64(0.2875), np.float64(0.2916666666666667)]","[np.float64(0.3972222222222222), np.float64(0.375)]","[1, 1]","[0, 0]","[0, 0]","[2.167183199999272, 4.568529899996065]","[None, 'Target']",THREE,1,2025-10-03_08h41.12.152,Visual Search Experiment,,2025.1.1,60.25657249,2025-10-03 08h41.20.661807 +0530
174,0,174,[np.float64(0.10277777777777777)],[np.float64(-0.001388888888888889)],[1],[0],[0],[1.9134457999971346],['Target'],174,0,174,0,339.6497926,,5,339.6215111,339.6497926,339.6497926,0.0184842,341.535182,[np.float64(0.10277777777777777)],[np.float64(-0.001388888888888889)],[1],[0],[0],[1.9134457999971346],['Target'],THREE,1,2025-10-03_08h41.12.152,Visual Search Experiment,,2025.1.1,60.25657249,2025-10-03 08h41.20.661807 +0530
175,0,175,[np.float64(0.002777777777777778)],[np.float64(0.4263888888888889)],[1],[0],[0],[2.3766572999957134],['Target'],175,0,175,0,341.5842787,,10,341.5580321,341.5842787,341.5842787,0.0227526,343.9348627,[np.float64(0.002777777777777778)],[np.float64(0.4263888888888889)],[1],[0],[0],[2.3766572999957134],['Target'],THREE,1,2025-10-03_08h41.12.152,Visual Search Experiment,,2025.1.1,60.25657249,2025-10-03 08h41.20.661807 +0530
176,0,176,[np.float64(0.004166666666666667)],[np.float64(0.48055555555555557)],[1],[0],[0],[1.3331179000015254],['Target'],176,0,176,0,343.9827601,,10,343.9681342,343.9827601,343.9827601,0.0331431,345.3015092,[np.float64(0.004166666666666667)],[np.float64(0.48055555555555557)],[1],[0],[0],[1.3331179000015254],['Target'],THREE,1,2025-10-03_08h41.12.152,Visual Search Experiment,,2025.1.1,60.25657249,2025-10-03 08h41.20.661807 +0530
177,0,177,[np.float64(-0.22083333333333333)],[np.float64(-0.36527777777777776)],[1],[0],[0],[2.082003399998939],['Target'],177,0,177,0,345.3491836,,10,345.3352636,345.3491836,345.3491836,0.0336293,347.4175428,[np.float64(-0.22083333333333333)],[np.float64(-0.36527777777777776)],[1],[0],[0],[2.082003399998939],['Target'],THREE,1,2025-10-03_08h41.12.152,Visual Search Experiment,,2025.1.1,60.25657249,2025-10-03 08h41.20.661807 +0530
178,0,178,[np.float64(-0.05)],[np.float64(-0.28888888888888886)],[1],[0],[0],[1.475563100000727],['Target'],178,0,178,0,347.4659297,,10,347.4414033,347.4659297,347.4659297,0.0236503,348.9171363,[np.float64(-0.05)],[np.float64(-0.28888888888888886)],[1],[0],[0],[1.475563100000727],['Target'],THREE,1,2025-10-03_08h41.12.152,Visual Search Experiment,,2025.1.1,60.25657249,2025-10-03 08h41.20.661807 +0530
179,0,179,[np.float64(0.17777777777777778)],[np.float64(-0.4236111111111111)],[1],[0],[0],[2.1068002000029082],['Target'],179,0,179,0,348.9651633,,10,348.9432854,348.9651633,348.9651633,0.0260181,351.0502695,[np.float64(0.17777777777777778)],[np.float64(-0.4236111111111111)],[1],[0],[0],[2.1068002000029082],['Target'],THREE,1,2025-10-03_08h41.12.152,Visual Search Experiment,,2025.1.1,60.25657249,2025-10-03 08h41.20.661807 +0530
180,0,180,[np.float64(-0.09861111111111111)],[np.float64(-0.49583333333333335)],[1],[0],[0],[1.6377681000012672],['Target'],180,0,180,0,351.080733,,5,351.0627991,351.080733,351.080733,0.0123798,352.7007408,[np.float64(-0.09861111111111111)],[np.float64(-0.49583333333333335)],[1],[0],[0],[1.6377681000012672],['Target'],THREE,1,2025-10-03_08h41.12.152,Visual Search Experiment,,2025.1.1,60.25657249,2025-10-03 08h41.20.661807 +0530
181,0,181,[np.float64(0.47638888888888886)],[np.float64(-0.005555555555555556)],[1],[0],[0],[1.6914342999953078],['Target'],181,0,181,0,352.7483504,,10,352.7250022,352.7483504,352.7483504,0.0241619,354.4166166,[np.float64(0.47638888888888886)],[np.float64(-0.005555555555555556)],[1],[0],[0],[1.6914342999953078],['Target'],THREE,1,2025-10-03_08h41.12.152,Visual Search Experiment,,2025.1.1,60.25657249,2025-10-03 08h41.20.661807 +0530
182,0,182,[np.float64(0.42083333333333334)],[np.float64(0.22083333333333333)],[1],[0],[0],[1.9184705000006943],['Target'],182,0,182,0,354.447799,,5,354.4313293,354.447799,354.447799,0.014594,356.3499881,[np.float64(0.42083333333333334)],[np.float64(0.22083333333333333)],[1],[0],[0],[1.9184705000006943],['Target'],THREE,1,2025-10-03_08h41.12.152,Visual Search Experiment,,2025.1.1,60.25657249,2025-10-03 08h41.20.661807 +0530
183,0,183,[np.float64(0.13055555555555556)],[np.float64(-0.2652777777777778)],[1],[0],[0],[1.853232699999353],['Target'],183,0,183,0,356.3801276,,5,356.3629877,356.3801276,356.3801276,0.0128916,358.2163843,[np.float64(0.13055555555555556)],[np.float64(-0.2652777777777778)],[1],[0],[0],[1.853232699999353],['Target'],THREE,1,2025-10-03_08h41.12.152,Visual Search Experiment,,2025.1.1,60.25657249,2025-10-03 08h41.20.661807 +0530
184,0,184,[np.float64(-0.08472222222222223)],[np.float64(0.025)],[1],[0],[0],[1.5360410000066622],['Target'],184,0,184,0,358.2465846,,5,358.2290547,358.2465846,358.2465846,0.0125698,359.7652416,[np.float64(-0.08472222222222223)],[np.float64(0.025)],[1],[0],[0],[1.5360410000066622],['Target'],THREE,1,2025-10-03_08h41.12.152,Visual Search Experiment,,2025.1.1,60.25657249,2025-10-03 08h41.20.661807 +0530
185,0,185,"[np.float64(-0.008333333333333333), np.float64(-0.015277777777777777)]","[np.float64(0.2222222222222222), np.float64(0.22777777777777777)]","[1, 1]","[0, 0]","[0, 0]","[1.4791485000023386, 2.44445970000379]","[None, 'Target']",185,0,185,0,359.8144159,,10,359.7875262,359.8144159,359.8144159,0.0222142,362.232244,"[np.float64(-0.008333333333333333), np.float64(-0.015277777777777777)]","[np.float64(0.2222222222222222), np.float64(0.22777777777777777)]","[1, 1]","[0, 0]","[0, 0]","[1.4791485000023386, 2.44445970000379]","[None, 'Target']",THREE,1,2025-10-03_08h41.12.152,Visual Search Experiment,,2025.1.1,60.25657249,2025-10-03 08h41.20.661807 +0530
186,0,186,[np.float64(-0.35)],[np.float64(-0.4152777777777778)],[1],[0],[0],[2.3605108999981894],['Target'],186,0,186,0,362.282102,,5,362.2549345,362.282102,362.282102,0.0224163,364.6157196,[np.float64(-0.35)],[np.float64(-0.4152777777777778)],[1],[0],[0],[2.3605108999981894],['Target'],THREE,1,2025-10-03_08h41.12.152,Visual Search Experiment,,2025.1.1,60.25657249,2025-10-03 08h41.20.661807 +0530
187,0,187,[np.float64(0.13333333333333333)],[np.float64(0.2722222222222222)],[1],[0],[0],[5.038504299998749],['Target'],187,0,187,0,364.6457574,,5,364.6256086,364.6457574,364.6457574,0.0097147,369.6642821,[np.float64(0.13333333333333333)],[np.float64(0.2722222222222222)],[1],[0],[0],[5.038504299998749],['Target'],THREE,1,2025-10-03_08h41.12.152,Visual Search Experiment,,2025.1.1,60.25657249,2025-10-03 08h41.20.661807 +0530
188,0,188,[np.float64(-0.44166666666666665)],[np.float64(0.1638888888888889)],[1],[0],[0],[1.5261931999993976],['Target'],188,0,188,0,369.6952803,,5,369.6729788,369.6952803,369.6952803,0.0085181,371.1993353,[np.float64(-0.44166666666666665)],[np.float64(0.1638888888888889)],[1],[0],[0],[1.5261931999993976],['Target'],THREE,1,2025-10-03_08h41.12.152,Visual Search Experiment,,2025.1.1,60.25657249,2025-10-03 08h41.20.661807 +0530
189,0,189,"[np.float64(-0.44166666666666665), np.float64(-0.2652777777777778)]","[np.float64(0.1638888888888889), np.float64(0.10694444444444444)]","[1, 1]","[0, 0]","[0, 0]","[0.25934119999874383, 1.7424294000011287]","[None, 'Target']",189,0,189,0,371.2470725,,10,371.2215117,371.2470725,371.2470725,0.0220496,372.9641265,"[np.float64(-0.44166666666666665), np.float64(-0.2652777777777778)]","[np.float64(0.1638888888888889), np.float64(0.10694444444444444)]","[1, 1]","[0, 0]","[0, 0]","[0.25934119999874383, 1.7424294000011287]","[None, 'Target']",THREE,1,2025-10-03_08h41.12.152,Visual Search Experiment,,2025.1.1,60.25657249,2025-10-03 08h41.20.661807 +0530
190,0,190,"[np.float64(0.04583333333333333), np.float64(0.04583333333333333), np.float64(0.03611111111111111)]","[np.float64(-0.08611111111111111), np.float64(-0.08611111111111111), np.float64(-0.09027777777777778)]","[1, 1, 1]","[0, 0, 0]","[0, 0, 0]","[1.4471248999980162, 1.7290620999992825, 2.5455822000003536]","[None, None, 'Target']",190,0,190,0,373.0140157,,10,372.9842211,373.0140157,373.0140157,0.0198667,375.5299836,"[np.float64(0.04583333333333333), np.float64(0.04583333333333333), np.float64(0.03611111111111111)]","[np.float64(-0.08611111111111111), np.float64(-0.08611111111111111), np.float64(-0.09027777777777778)]","[1, 1, 1]","[0, 0, 0]","[0, 0, 0]","[1.4471248999980162, 1.7290620999992825, 2.5455822000003536]","[None, None, 'Target']",THREE,1,2025-10-03_08h41.12.152,Visual Search Experiment,,2025.1.1,60.25657249,2025-10-03 08h41.20.661807 +0530
191,0,191,[np.float64(0.44027777777777777)],[np.float64(0.14583333333333334)],[1],[0],[0],[6.674144899996463],['Target'],191,0,191,0,375.5619311,,5,375.5394979,375.5619311,375.5619311,0.0093833,382.2137934,[np.float64(0.44027777777777777)],[np.float64(0.14583333333333334)],[1],[0],[0],[6.674144899996463],['Target'],THREE,1,2025-10-03_08h41.12.152,Visual Search Experiment,,2025.1.1,60.25657249,2025-10-03 08h41.20.661807 +0530
192,0,192,[np.float64(-0.20972222222222223)],[np.float64(-0.034722222222222224)],[1],[0],[0],[2.062849699999788],['Target'],192,0,192,0,382.2441042,,10,382.2336396,382.2441042,382.2441042,0.0197466,384.2966411,[np.float64(-0.20972222222222223)],[np.float64(-0.034722222222222224)],[1],[0],[0],[2.062849699999788],['Target'],THREE,1,2025-10-03_08h41.12.152,Visual Search Experiment,,2025.1.1,60.25657249,2025-10-03 08h41.20.661807 +0530
193,0,193,[np.float64(0.06944444444444445)],[np.float64(-0.2875)],[1],[0],[0],[1.2413758999973652],['Target'],193,0,193,0,384.3275351,,5,384.3059813,384.3275351,384.3275351,0.0092383,385.547521,[np.float64(0.06944444444444445)],[np.float64(-0.2875)],[1],[0],[0],[1.2413758999973652],['Target'],THREE,1,2025-10-03_08h41.12.152,Visual Search Experiment,,2025.1.1,60.25657249,2025-10-03 08h41.20.661807 +0530
194,0,194,[np.float64(0.3763888888888889)],[np.float64(-0.0763888888888889)],[1],[0],[0],[1.4546308999997564],['Target'],194,0,194,0,385.5792947,,5,385.5589976,385.5792947,385.5792947,0.0113766,387.0137971,[np.float64(0.3763888888888889)],[np.float64(-0.0763888888888889)],[1],[0],[0],[1.4546308999997564],['Target'],THREE,1,2025-10-03_08h41.12.152,Visual Search Experiment,,2025.1.1,60.25657249,2025-10-03 08h41.20.661807 +0530
195,0,195,[np.float64(-0.4027777777777778)],[np.float64(0.42083333333333334)],[1],[0],[0],[1.9880520000006072],['Target'],195,0,195,0,387.0438093,,5,387.0241311,387.0438093,387.0438093,0.0102218,389.0123994,[np.float64(-0.4027777777777778)],[np.float64(0.42083333333333334)],[1],[0],[0],[1.9880520000006072],['Target'],THREE,1,2025-10-03_08h41.12.152,Visual Search Experiment,,2025.1.1,60.25657249,2025-10-03 08h41.20.661807 +0530
196,0,196,[np.float64(0.29444444444444445)],[np.float64(-0.11527777777777778)],[1],[0],[0],[1.6570485999982338],['Target'],196,0,196,0,389.0435761,,5,389.0219624,389.0435761,389.0435761,0.0093775,390.6791386,[np.float64(0.29444444444444445)],[np.float64(-0.11527777777777778)],[1],[0],[0],[1.6570485999982338],['Target'],THREE,1,2025-10-03_08h41.12.152,Visual Search Experiment,,2025.1.1,60.25657249,2025-10-03 08h41.20.661807 +0530
197,0,197,[np.float64(0.4375)],[np.float64(-0.3236111111111111)],[1],[0],[0],[1.5913119000033475],['Target'],197,0,197,0,390.7098835,,5,390.6874076,390.7098835,390.7098835,0.0081894,392.278848,[np.float64(0.4375)],[np.float64(-0.3236111111111111)],[1],[0],[0],[1.5913119000033475],['Target'],THREE,1,2025-10-03_08h41.12.152,Visual Search Experiment,,2025.1.1,60.25657249,2025-10-03 08h41.20.661807 +0530
198,0,198,[np.float64(-0.44583333333333336)],[np.float64(-0.28055555555555556)],[1],[0],[0],[1.4081628999992972],['Target'],198,0,198,0,392.3100588,,5,392.287321,392.3100588,392.3100588,0.0083921,393.6956235,[np.float64(-0.44583333333333336)],[np.float64(-0.28055555555555556)],[1],[0],[0],[1.4081628999992972],['Target'],THREE,1,2025-10-03_08h41.12.152,Visual Search Experiment,,2025.1.1,60.25657249,2025-10-03 08h41.20.661807 +0530
199,0,199,[np.float64(0.26666666666666666)],[np.float64(-0.15694444444444444)],[1],[0],[0],[1.163457800001197],['Target'],199,0,199,0,393.726396,,10,393.7152104,393.726396,393.726396,0.0195057,394.8787997,[np.float64(0.26666666666666666)],[np.float64(-0.15694444444444444)],[1],[0],[0],[1.163457800001197],['Target'],THREE,1,2025-10-03_08h41.12.152,Visual Search Experiment,,2025.1.1,60.25657249,2025-10-03 08h41.20.661807 +0530
