thisN,thisTrialN,thisRepN,mouse.x,mouse.y,mouse.leftButton,mouse.midButton,mouse.rightButton,mouse.time,mouse.clicked_name,trials.thisRepN,trials.thisTrialN,trials.thisN,trials.thisIndex,thisRow.t,notes,num_distr,trial.started,Fixation.started,Target.started,mouse.started,trial.stopped,trials.mouse.x,trials.mouse.y,trials.mouse.leftButton,trials.mouse.midButton,trials.mouse.rightButton,trials.mouse.time,trials.mouse.clicked_name,participant,session,date,expName,expVersion,psychopyVersion,frameRate,expStart,
0,0,0,[np.float64(0.3013888888888889)],[np.float64(-0.24305555555555555)],[1],[0],[0],[1.7153152000028058],['Target'],0,0,0,0,0.08199030000105267,,10,0.05977279999933671,0.08199030000105267,0.08199030000105267,0.05981389999942621,1.7752949999994598,[np.float64(0.3013888888888889)],[np.float64(-0.24305555555555555)],[1],[0],[0],[1.7153152000028058],['Target'],TWO,001,2025-10-03_08h34.50.824,Visual Search Experiment,,2025.1.1,60.06893510949264,2025-10-03 08h35.06.598694 +0530,
1,0,1,[np.float64(-0.4222222222222222)],[np.float64(-0.1875)],[1],[0],[0],[1.550076400002581],['Target'],1,0,1,0,1.7979121999997005,,5,1.7844371999999566,1.7979121999997005,1.7979121999997005,0.009026499999890802,3.3346898999989207,[np.float64(-0.4222222222222222)],[np.float64(-0.1875)],[1],[0],[0],[1.550076400002581],['Target'],TWO,001,2025-10-03_08h34.50.824,Visual Search Experiment,,2025.1.1,60.06893510949264,2025-10-03 08h35.06.598694 +0530,
2,0,2,[np.float64(-0.25)],[np.float64(-0.17916666666666667)],[1],[0],[0],[1.456476000003022],['Target'],2,0,2,0,3.3642902999999933,,5,3.3436130000009143,3.3642902999999933,3.3642902999999933,0.00879250000070897,4.800285699999222,[np.float64(-0.25)],[np.float64(-0.17916666666666667)],[1],[0],[0],[1.456476000003022],['Target'],TWO,001,2025-10-03_08h34.50.824,Visual Search Experiment,,2025.1.1,60.06893510949264,2025-10-03 08h35.06.598694 +0530,
3,0,3,[np.float64(0.1736111111111111)],[np.float64(0.41944444444444445)],[1],[0],[0],[1.264727400000993],['Target'],3,0,3,0,4.847584999999526,,10,4.834811600001558,4.847584999999526,4.847584999999526,0.03438520000054268,6.099695799999608,[np.float64(0.1736111111111111)],[np.float64(0.41944444444444445)],[1],[0],[0],[1.264727400000993],['Target'],TWO,001,2025-10-03_08h34.50.824,Visual Search Experiment,,2025.1.1,60.06893510949264,2025-10-03 08h35.06.598694 +0530,
4,0,4,[np.float64(-0.3958333333333333)],[np.float64(-0.26944444444444443)],[1],[0],[0],[1.3554890000013984],['Target'],4,0,4,0,6.130307800001901,,5,6.110118900000089,6.130307800001901,6.130307800001901,0.010329799999453826,7.465743900000234,[np.float64(-0.3958333333333333)],[np.float64(-0.26944444444444443)],[1],[0],[0],[1.3554890000013984],['Target'],TWO,001,2025-10-03_08h34.50.824,Visual Search Experiment,,2025.1.1,60.06893510949264,2025-10-03 08h35.06.598694 +0530,
5,0,5,[np.float64(0.48194444444444445)],[np.float64(-0.14444444444444443)],[1],[0],[0],[1.3082098000013502],['Target'],5,0,5,0,7.496592100000271,,5,7.474096800000552,7.496592100000271,7.496592100000271,0.00826969999980065,8.782444799999212,[np.float64(0.48194444444444445)],[np.float64(-0.14444444444444443)],[1],[0],[0],[1.3082098000013502],['Target'],TWO,001,2025-10-03_08h34.50.824,Visual Search Experiment,,2025.1.1,60.06893510949264,2025-10-03 08h35.06.598694 +0530,
6,0,6,[np.float64(0.35138888888888886)],[np.float64(-0.3680555555555556)],[1],[0],[0],[2.5966493000014452],['Target'],6,0,6,0,8.812724499999604,,10,8.801949500000774,8.812724499999604,8.812724499999604,0.019420500000705943,11.398770499999955,[np.float64(0.35138888888888886)],[np.float64(-0.3680555555555556)],[1],[0],[0],[2.5966493000014452],['Target'],TWO,001,2025-10-03_08h34.50.824,Visual Search Experiment,,2025.1.1,60.06893510949264,2025-10-03 08h35.06.598694 +0530,
7,0,7,[np.float64(0.15416666666666667)],[np.float64(0.30833333333333335)],[1],[0],[0],[1.4937096000030579],['Target'],7,0,7,0,11.479817999999796,,5,11.471936400001141,11.479817999999796,11.479817999999796,0.07300969999778317,12.96577199999956,[np.float64(0.15416666666666667)],[np.float64(0.30833333333333335)],[1],[0],[0],[1.4937096000030579],['Target'],TWO,001,2025-10-03_08h34.50.824,Visual Search Experiment,,2025.1.1,60.06893510949264,2025-10-03 08h35.06.598694 +0530,
8,0,8,[np.float64(0.06944444444444445)],[np.float64(0.11666666666666667)],[1],[0],[0],[1.157277400001476],['Target'],8,0,8,0,12.995996199999354,,5,12.97460990000036,12.995996199999354,12.995996199999354,0.008756999999604886,14.132059700001264,[np.float64(0.06944444444444445)],[np.float64(0.11666666666666667)],[1],[0],[0],[1.157277400001476],['Target'],TWO,001,2025-10-03_08h34.50.824,Visual Search Experiment,,2025.1.1,60.06893510949264,2025-10-03 08h35.06.598694 +0530,
9,0,9,"[np.float64(0.1763888888888889), np.float64(0.20277777777777778)]","[np.float64(0.14305555555555555), np.float64(0.11805555555555555)]","[1, 1]","[0, 0]","[0, 0]","[1.0068432000007306, 1.8754895000020042]","[None, 'Target']",9,0,9,0,14.162864800000534,,5,14.141708499999368,14.162864800000534,14.162864800000534,0.009463300000788877,16.017363499999192,"[np.float64(0.1763888888888889), np.float64(0.20277777777777778)]","[np.float64(0.14305555555555555), np.float64(0.11805555555555555)]","[1, 1]","[0, 0]","[0, 0]","[1.0068432000007306, 1.8754895000020042]","[None, 'Target']",TWO,001,2025-10-03_08h34.50.824,Visual Search Experiment,,2025.1.1,60.06893510949264,2025-10-03 08h35.06.598694 +0530,
10,0,10,[np.float64(0.4222222222222222)],[np.float64(-0.3375)],[1],[0],[0],[1.4160209000001487],['Target'],10,0,10,0,16.04581429999962,,5,16.032575400000496,16.04581429999962,16.04581429999962,0.015082300000358373,17.448802899998554,[np.float64(0.4222222222222222)],[np.float64(-0.3375)],[1],[0],[0],[1.4160209000001487],['Target'],TWO,001,2025-10-03_08h34.50.824,Visual Search Experiment,,2025.1.1,60.06893510949264,2025-10-03 08h35.06.598694 +0530,
11,0,11,[np.float64(-0.41944444444444445)],[np.float64(0.48055555555555557)],[1],[0],[0],[1.789909600000101],['Target'],11,0,11,0,17.47918149999896,,5,17.458017400000244,17.47918149999896,17.47918149999896,0.00901499999963562,19.248069699999178,[np.float64(-0.41944444444444445)],[np.float64(0.48055555555555557)],[1],[0],[0],[1.789909600000101],['Target'],TWO,001,2025-10-03_08h34.50.824,Visual Search Experiment,,2025.1.1,60.06893510949264,2025-10-03 08h35.06.598694 +0530,
12,0,12,[np.float64(-0.3527777777777778)],[np.float64(0.2652777777777778)],[1],[0],[0],[1.296372100001463],['Target'],12,0,12,0,19.27869389999978,,10,19.268297400001757,19.27869389999978,19.27869389999978,0.020131099998252466,20.564811700001883,[np.float64(-0.3527777777777778)],[np.float64(0.2652777777777778)],[1],[0],[0],[1.296372100001463],['Target'],TWO,001,2025-10-03_08h34.50.824,Visual Search Experiment,,2025.1.1,60.06893510949264,2025-10-03 08h35.06.598694 +0530,
13,0,13,"[np.float64(-0.45694444444444443), np.float64(-0.4444444444444444)]","[np.float64(-0.020833333333333332), np.float64(-0.0125)]","[1, 1]","[0, 0]","[0, 0]","[1.798335000003135, 2.7807166000020516]","[None, 'Target']",13,0,13,0,20.59532069999841,,10,20.582987000001594,20.59532069999841,20.59532069999841,0.018070099999022204,23.363833200000954,"[np.float64(-0.45694444444444443), np.float64(-0.4444444444444444)]","[np.float64(-0.020833333333333332), np.float64(-0.0125)]","[1, 1]","[0, 0]","[0, 0]","[1.798335000003135, 2.7807166000020516]","[None, 'Target']",TWO,001,2025-10-03_08h34.50.824,Visual Search Experiment,,2025.1.1,60.06893510949264,2025-10-03 08h35.06.598694 +0530,
14,0,14,[np.float64(-0.43333333333333335)],[np.float64(-0.011111111111111112)],[1],[0],[0],[1.312704500000109],['Target'],14,0,14,0,23.39503799999875,,5,23.372848599999998,23.39503799999875,23.39503799999875,0.008876700001565041,24.685752699999284,[np.float64(-0.43333333333333335)],[np.float64(-0.011111111111111112)],[1],[0],[0],[1.312704500000109],['Target'],TWO,001,2025-10-03_08h34.50.824,Visual Search Experiment,,2025.1.1,60.06893510949264,2025-10-03 08h35.06.598694 +0530,
15,0,15,[np.float64(0.05)],[np.float64(-0.04861111111111111)],[1],[0],[0],[1.3607965999981388],['Target'],15,0,15,0,24.711767199998576,,5,24.703530800001317,24.711767199998576,24.711767199998576,0.01760690000082832,26.064482099998713,[np.float64(0.05)],[np.float64(-0.04861111111111111)],[1],[0],[0],[1.3607965999981388],['Target'],TWO,001,2025-10-03_08h34.50.824,Visual Search Experiment,,2025.1.1,60.06893510949264,2025-10-03 08h35.06.598694 +0530,
16,0,16,[np.float64(-0.45694444444444443)],[np.float64(0.4152777777777778)],[1],[0],[0],[1.76411829999779],['Target'],16,0,16,0,26.094979900000908,,10,26.08327139999892,26.094979900000908,26.094979900000908,0.018708399999013636,27.847564700001385,[np.float64(-0.45694444444444443)],[np.float64(0.4152777777777778)],[1],[0],[0],[1.76411829999779],['Target'],TWO,001,2025-10-03_08h34.50.824,Visual Search Experiment,,2025.1.1,60.06893510949264,2025-10-03 08h35.06.598694 +0530,
17,0,17,[np.float64(0.2111111111111111)],[np.float64(0.48055555555555557)],[1],[0],[0],[1.4922440999980608],['Target'],17,0,17,0,27.895374799998535,,10,27.871565199999168,27.895374799998535,27.895374799998535,0.023823899999115383,29.36396120000063,[np.float64(0.2111111111111111)],[np.float64(0.48055555555555557)],[1],[0],[0],[1.4922440999980608],['Target'],TWO,001,2025-10-03_08h34.50.824,Visual Search Experiment,,2025.1.1,60.06893510949264,2025-10-03 08h35.06.598694 +0530,
18,0,18,[np.float64(0.1625)],[np.float64(0.1125)],[1],[0],[0],[1.5173212999980024],['Target'],18,0,18,0,29.41181510000024,,10,29.387267400001292,29.41181510000024,29.41181510000024,0.02319580000039423,30.90491800000018,[np.float64(0.1625)],[np.float64(0.1125)],[1],[0],[0],[1.5173212999980024],['Target'],TWO,001,2025-10-03_08h34.50.824,Visual Search Experiment,,2025.1.1,60.06893510949264,2025-10-03 08h35.06.598694 +0530,
19,0,19,[np.float64(-0.16111111111111112)],[np.float64(-0.20277777777777778)],[1],[0],[0],[1.4750582999986364],['Target'],19,0,19,0,30.962841900000058,,10,30.94136029999936,30.962841900000058,30.962841900000058,0.03615450000143028,32.41666329999862,[np.float64(-0.16111111111111112)],[np.float64(-0.20277777777777778)],[1],[0],[0],[1.4750582999986364],['Target'],TWO,001,2025-10-03_08h34.50.824,Visual Search Experiment,,2025.1.1,60.06893510949264,2025-10-03 08h35.06.598694 +0530,
20,0,20,[np.float64(-0.3819444444444444)],[np.float64(0.325)],[1],[0],[0],[1.4794404999993276],['Target'],20,0,20,0,32.44526069999847,,5,32.43444670000099,32.44526069999847,32.44526069999847,0.01752469999701134,33.91406890000144,[np.float64(-0.3819444444444444)],[np.float64(0.325)],[1],[0],[0],[1.4794404999993276],['Target'],TWO,001,2025-10-03_08h34.50.824,Visual Search Experiment,,2025.1.1,60.06893510949264,2025-10-03 08h35.06.598694 +0530,
21,0,21,[np.float64(-0.43194444444444446)],[np.float64(0.30972222222222223)],[1],[0],[0],[1.1906120999992709],['Target'],21,0,21,0,33.96123090000037,,10,33.93772900000113,33.96123090000037,33.96123090000037,0.023557300002721604,35.12851850000152,[np.float64(-0.43194444444444446)],[np.float64(0.30972222222222223)],[1],[0],[0],[1.1906120999992709],['Target'],TWO,001,2025-10-03_08h34.50.824,Visual Search Experiment,,2025.1.1,60.06893510949264,2025-10-03 08h35.06.598694 +0530,
22,0,22,[np.float64(0.019444444444444445)],[np.float64(0.39444444444444443)],[1],[0],[0],[1.310020099997928],['Target'],22,0,22,0,35.179935700001806,,10,35.15276559999984,35.179935700001806,35.179935700001806,0.024125600000843406,36.46300479999991,[np.float64(0.019444444444444445)],[np.float64(0.39444444444444443)],[1],[0],[0],[1.310020099997928],['Target'],TWO,001,2025-10-03_08h34.50.824,Visual Search Experiment,,2025.1.1,60.06893510949264,2025-10-03 08h35.06.598694 +0530,
23,0,23,[np.float64(0.32083333333333336)],[np.float64(-0.2111111111111111)],[1],[0],[0],[1.3064368000013928],['Target'],23,0,23,0,36.49379459999909,,5,36.473375900000974,36.49379459999909,36.49379459999909,0.010105400000611553,37.779952400000184,[np.float64(0.32083333333333336)],[np.float64(-0.2111111111111111)],[1],[0],[0],[1.3064368000013928],['Target'],TWO,001,2025-10-03_08h34.50.824,Visual Search Experiment,,2025.1.1,60.06893510949264,2025-10-03 08h35.06.598694 +0530,
24,0,24,[np.float64(-0.39305555555555555)],[np.float64(0.48333333333333334)],[1],[0],[0],[2.830204000001686],['Target'],24,0,24,0,37.80989899999986,,10,37.798975800000335,37.80989899999986,37.80989899999986,0.018934100000478793,40.629312900000514,[np.float64(-0.39305555555555555)],[np.float64(0.48333333333333334)],[1],[0],[0],[2.830204000001686],['Target'],TWO,001,2025-10-03_08h34.50.824,Visual Search Experiment,,2025.1.1,60.06893510949264,2025-10-03 08h35.06.598694 +0530,
25,0,25,[np.float64(-0.4583333333333333)],[np.float64(-0.03333333333333333)],[1],[0],[0],[1.4909925000029034],['Target'],25,0,25,0,40.65975160000016,,5,40.63750309999887,40.65975160000016,40.65975160000016,0.008090300001640571,42.12867349999942,[np.float64(-0.4583333333333333)],[np.float64(-0.03333333333333333)],[1],[0],[0],[1.4909925000029034],['Target'],TWO,001,2025-10-03_08h34.50.824,Visual Search Experiment,,2025.1.1,60.06893510949264,2025-10-03 08h35.06.598694 +0530,
26,0,26,"[np.float64(0.06666666666666667), np.float64(0.08472222222222223)]","[np.float64(-0.09722222222222222), np.float64(-0.11527777777777778)]","[1, 1]","[0, 0]","[0, 0]","[1.5577298000025621, 2.3575482000014745]","[None, 'Target']",26,0,26,0,42.15983029999916,,5,42.138180300000386,42.15983029999916,42.15983029999916,0.009361400003399467,44.495861200000945,"[np.float64(0.06666666666666667), np.float64(0.08472222222222223)]","[np.float64(-0.09722222222222222), np.float64(-0.11527777777777778)]","[1, 1]","[0, 0]","[0, 0]","[1.5577298000025621, 2.3575482000014745]","[None, 'Target']",TWO,001,2025-10-03_08h34.50.824,Visual Search Experiment,,2025.1.1,60.06893510949264,2025-10-03 08h35.06.598694 +0530,
27,0,27,[np.float64(-0.32083333333333336)],[np.float64(0.04027777777777778)],[1],[0],[0],[1.404533699998865],['Target'],27,0,27,0,44.52718180000011,,5,44.50768099999914,44.52718180000011,44.52718180000011,0.011723899999196874,45.912401199999294,[np.float64(-0.32083333333333336)],[np.float64(0.04027777777777778)],[1],[0],[0],[1.404533699998865],['Target'],TWO,001,2025-10-03_08h34.50.824,Visual Search Experiment,,2025.1.1,60.06893510949264,2025-10-03 08h35.06.598694 +0530,
28,0,28,[np.float64(0.12361111111111112)],[np.float64(0.29305555555555557)],[1],[0],[0],[1.3079801999992924],['Target'],28,0,28,0,45.96043869999994,,10,45.93835079999917,45.96043869999994,45.96043869999994,0.0258469000000332,47.24653750000289,[np.float64(0.12361111111111112)],[np.float64(0.29305555555555557)],[1],[0],[0],[1.3079801999992924],['Target'],TWO,001,2025-10-03_08h34.50.824,Visual Search Experiment,,2025.1.1,60.06893510949264,2025-10-03 08h35.06.598694 +0530,
29,0,29,[np.float64(-0.4722222222222222)],[np.float64(0.3458333333333333)],[1],[0],[0],[1.5149448000011034],['Target'],29,0,29,0,47.2768436999977,,5,47.2638969000036,47.2768436999977,47.2768436999977,0.01720000000204891,48.779047199997876,[np.float64(-0.4722222222222222)],[np.float64(0.3458333333333333)],[1],[0],[0],[1.5149448000011034],['Target'],TWO,001,2025-10-03_08h34.50.824,Visual Search Experiment,,2025.1.1,60.06893510949264,2025-10-03 08h35.06.598694 +0530,
30,0,30,[np.float64(-0.4097222222222222)],[np.float64(-0.46944444444444444)],[1],[0],[0],[2.45154320000438],['Target'],30,0,30,0,48.80958020000253,,5,48.79275819999748,48.80958020000253,48.80958020000253,0.013614700001198798,51.24448480000137,[np.float64(-0.4097222222222222)],[np.float64(-0.46944444444444444)],[1],[0],[0],[2.45154320000438],['Target'],TWO,001,2025-10-03_08h34.50.824,Visual Search Experiment,,2025.1.1,60.06893510949264,2025-10-03 08h35.06.598694 +0530,
31,0,31,"[np.float64(-0.043055555555555555), np.float64(-0.0375)]","[np.float64(0.48194444444444445), np.float64(0.48194444444444445)]","[1, 1]","[0, 0]","[0, 0]","[2.2643203000043286, 3.1822226000003866]","[None, 'Target']",31,0,31,0,51.27545590000227,,10,51.263567399997555,51.27545590000227,51.27545590000227,0.01898059999803081,54.4459543999983,"[np.float64(-0.043055555555555555), np.float64(-0.0375)]","[np.float64(0.48194444444444445), np.float64(0.48194444444444445)]","[1, 1]","[0, 0]","[0, 0]","[2.2643203000043286, 3.1822226000003866]","[None, 'Target']",TWO,001,2025-10-03_08h34.50.824,Visual Search Experiment,,2025.1.1,60.06893510949264,2025-10-03 08h35.06.598694 +0530,
32,0,32,[np.float64(0.12083333333333333)],[np.float64(-0.21666666666666667)],[1],[0],[0],[1.6149576999960118],['Target'],32,0,32,0,54.47577920000185,,5,54.4632477999985,54.47577920000185,54.47577920000185,0.0171660999985761,56.0783706000002,[np.float64(0.12083333333333333)],[np.float64(-0.21666666666666667)],[1],[0],[0],[1.6149576999960118],['Target'],TWO,001,2025-10-03_08h34.50.824,Visual Search Experiment,,2025.1.1,60.06893510949264,2025-10-03 08h35.06.598694 +0530,
33,0,33,[np.float64(-0.35138888888888886)],[np.float64(-0.24305555555555555)],[1],[0],[0],[1.5212604999978794],['Target'],33,0,33,0,56.108599799998046,,5,56.089360099998885,56.108599799998046,56.108599799998046,0.010915899998508394,57.610774000000674,[np.float64(-0.35138888888888886)],[np.float64(-0.24305555555555555)],[1],[0],[0],[1.5212604999978794],['Target'],TWO,001,2025-10-03_08h34.50.824,Visual Search Experiment,,2025.1.1,60.06893510949264,2025-10-03 08h35.06.598694 +0530,
34,0,34,[np.float64(-0.48194444444444445)],[np.float64(0.2361111111111111)],[1],[0],[0],[1.489906599999813],['Target'],34,0,34,0,57.64186489999702,,5,57.62069689999771,57.64186489999702,57.64186489999702,0.009828300004301127,59.110774100001436,[np.float64(-0.48194444444444445)],[np.float64(0.2361111111111111)],[1],[0],[0],[1.489906599999813],['Target'],TWO,001,2025-10-03_08h34.50.824,Visual Search Experiment,,2025.1.1,60.06893510949264,2025-10-03 08h35.06.598694 +0530,
35,0,35,[np.float64(-0.22777777777777777)],[np.float64(-0.15138888888888888)],[1],[0],[0],[1.3349664999986999],['Target'],35,0,35,0,59.16126670000085,,5,59.126199799997266,59.16126670000085,59.16126670000085,0.015328300003602635,60.46139879999828,[np.float64(-0.22777777777777777)],[np.float64(-0.15138888888888888)],[1],[0],[0],[1.3349664999986999],['Target'],TWO,001,2025-10-03_08h34.50.824,Visual Search Experiment,,2025.1.1,60.06893510949264,2025-10-03 08h35.06.598694 +0530,
36,0,36,[np.float64(-0.013888888888888888)],[np.float64(-0.1736111111111111)],[1],[0],[0],[1.1045529000039096],['Target'],36,0,36,0,60.4912611999971,,5,60.475624799997604,60.4912611999971,60.4912611999971,0.014120599997113459,61.580362499997136,[np.float64(-0.013888888888888888)],[np.float64(-0.1736111111111111)],[1],[0],[0],[1.1045529000039096],['Target'],TWO,001,2025-10-03_08h34.50.824,Visual Search Experiment,,2025.1.1,60.06893510949264,2025-10-03 08h35.06.598694 +0530,
37,0,37,[np.float64(0.058333333333333334)],[np.float64(0.025)],[1],[0],[0],[1.2150467000028584],['Target'],37,0,37,0,61.62565219999669,,10,61.61142909999762,61.62565219999669,61.62565219999669,0.030900099998689257,62.82661380000354,[np.float64(0.058333333333333334)],[np.float64(0.025)],[1],[0],[0],[1.2150467000028584],['Target'],TWO,001,2025-10-03_08h34.50.824,Visual Search Experiment,,2025.1.1,60.06893510949264,2025-10-03 08h35.06.598694 +0530,
38,0,38,[np.float64(-0.33055555555555555)],[np.float64(0.28055555555555556)],[1],[0],[0],[1.2089502000017092],['Target'],38,0,38,0,62.85754530000122,,5,62.835436800000025,62.85754530000122,62.85754530000122,0.008723899998585694,64.0445228000026,[np.float64(-0.33055555555555555)],[np.float64(0.28055555555555556)],[1],[0],[0],[1.2089502000017092],['Target'],TWO,001,2025-10-03_08h34.50.824,Visual Search Experiment,,2025.1.1,60.06893510949264,2025-10-03 08h35.06.598694 +0530,
39,0,39,[np.float64(0.38055555555555554)],[np.float64(0.034722222222222224)],[1],[0],[0],[1.6967980999979773],['Target'],39,0,39,0,64.07421250000334,,10,64.06324200000381,64.07421250000334,64.07421250000334,0.018638699999428354,65.76017899999715,[np.float64(0.38055555555555554)],[np.float64(0.034722222222222224)],[1],[0],[0],[1.6967980999979773],['Target'],TWO,001,2025-10-03_08h34.50.824,Visual Search Experiment,,2025.1.1,60.06893510949264,2025-10-03 08h35.06.598694 +0530,
40,0,40,[np.float64(-0.015277777777777777)],[np.float64(-0.2763888888888889)],[1],[0],[0],[1.3719312000030186],['Target'],40,0,40,0,65.79139849999774,,5,65.77139069999976,65.79139849999774,65.79139849999774,0.011099200004537124,67.1434642000022,[np.float64(-0.015277777777777777)],[np.float64(-0.2763888888888889)],[1],[0],[0],[1.3719312000030186],['Target'],TWO,001,2025-10-03_08h34.50.824,Visual Search Experiment,,2025.1.1,60.06893510949264,2025-10-03 08h35.06.598694 +0530,
41,0,41,[np.float64(-0.175)],[np.float64(0.2263888888888889)],[1],[0],[0],[1.2607219999990775],['Target'],41,0,41,0,67.19138799999928,,10,67.16503550000198,67.19138799999928,67.19138799999928,0.021489300001121592,68.4258953000026,[np.float64(-0.175)],[np.float64(0.2263888888888889)],[1],[0],[0],[1.2607219999990775],['Target'],TWO,001,2025-10-03_08h34.50.824,Visual Search Experiment,,2025.1.1,60.06893510949264,2025-10-03 08h35.06.598694 +0530,
42,0,42,[np.float64(-0.3375)],[np.float64(-0.2263888888888889)],[1],[0],[0],[1.6414942000046722],['Target'],42,0,42,0,68.45842049999919,,5,68.43451880000066,68.45842049999919,68.45842049999919,0.008520500006852672,70.07614489999833,[np.float64(-0.3375)],[np.float64(-0.2263888888888889)],[1],[0],[0],[1.6414942000046722],['Target'],TWO,001,2025-10-03_08h34.50.824,Visual Search Experiment,,2025.1.1,60.06893510949264,2025-10-03 08h35.06.598694 +0530,
43,0,43,[np.float64(0.3611111111111111)],[np.float64(0.02638888888888889)],[1],[0],[0],[1.7777644999951008],['Target'],43,0,43,0,70.12459210000088,,10,70.09831919999851,70.12459210000088,70.12459210000088,0.022088199999416247,71.87634080000134,[np.float64(0.3611111111111111)],[np.float64(0.02638888888888889)],[1],[0],[0],[1.7777644999951008],['Target'],TWO,001,2025-10-03_08h34.50.824,Visual Search Experiment,,2025.1.1,60.06893510949264,2025-10-03 08h35.06.598694 +0530,
44,0,44,[np.float64(0.14722222222222223)],[np.float64(-0.25277777777777777)],[1],[0],[0],[1.6300448999973014],['Target'],44,0,44,0,71.90668500000174,,10,71.89579349999985,71.90668500000174,71.90668500000174,0.01916689999779919,73.52599219999684,[np.float64(0.14722222222222223)],[np.float64(-0.25277777777777777)],[1],[0],[0],[1.6300448999973014],['Target'],TWO,001,2025-10-03_08h34.50.824,Visual Search Experiment,,2025.1.1,60.06893510949264,2025-10-03 08h35.06.598694 +0530,
45,0,45,[np.float64(0.3277777777777778)],[np.float64(-0.05416666666666667)],[1],[0],[0],[1.6700878999981796],['Target'],45,0,45,0,73.55715880000207,,5,73.5383692999967,73.55715880000207,73.55715880000207,0.012261500000022352,75.20861400000285,[np.float64(0.3277777777777778)],[np.float64(-0.05416666666666667)],[1],[0],[0],[1.6700878999981796],['Target'],TWO,001,2025-10-03_08h34.50.824,Visual Search Experiment,,2025.1.1,60.06893510949264,2025-10-03 08h35.06.598694 +0530,
46,0,46,[np.float64(-0.3375)],[np.float64(0.25277777777777777)],[1],[0],[0],[1.5955934000012348],['Target'],46,0,46,0,75.25764150000032,,10,75.23008570000093,75.25764150000032,75.25764150000032,0.021383899998909328,76.82589189999999,[np.float64(-0.3375)],[np.float64(0.25277777777777777)],[1],[0],[0],[1.5955934000012348],['Target'],TWO,001,2025-10-03_08h34.50.824,Visual Search Experiment,,2025.1.1,60.06893510949264,2025-10-03 08h35.06.598694 +0530,
47,0,47,[np.float64(0.3875)],[np.float64(0.35138888888888886)],[1],[0],[0],[1.7412101000008988],['Target'],47,0,47,0,76.86157990000356,,5,76.83558730000368,76.86157990000356,76.86157990000356,0.009482400004344527,78.5770687999975,[np.float64(0.3875)],[np.float64(0.35138888888888886)],[1],[0],[0],[1.7412101000008988],['Target'],TWO,001,2025-10-03_08h34.50.824,Visual Search Experiment,,2025.1.1,60.06893510949264,2025-10-03 08h35.06.598694 +0530,
48,0,48,[np.float64(0.3902777777777778)],[np.float64(0.125)],[1],[0],[0],[1.3225955000016256],['Target'],48,0,48,0,78.60623530000157,,5,78.58639319999929,78.60623530000157,78.60623530000157,0.009226100002706517,79.90917630000331,[np.float64(0.3902777777777778)],[np.float64(0.125)],[1],[0],[0],[1.3225955000016256],['Target'],TWO,001,2025-10-03_08h34.50.824,Visual Search Experiment,,2025.1.1,60.06893510949264,2025-10-03 08h35.06.598694 +0530,
49,0,49,[np.float64(0.47638888888888886)],[np.float64(0.016666666666666666)],[1],[0],[0],[3.0575889000028837],['Target'],49,0,49,0,79.93990099999792,,5,79.91771300000255,79.93990099999792,79.93990099999792,0.008379900005820673,82.97543610000139,[np.float64(0.47638888888888886)],[np.float64(0.016666666666666666)],[1],[0],[0],[3.0575889000028837],['Target'],TWO,001,2025-10-03_08h34.50.824,Visual Search Experiment,,2025.1.1,60.06893510949264,2025-10-03 08h35.06.598694 +0530,
50,0,50,[np.float64(0.09166666666666666)],[np.float64(0.4013888888888889)],[1],[0],[0],[1.306461100000888],['Target'],50,0,50,0,83.00619810000353,,5,82.98543849999987,83.00619810000353,83.00619810000353,0.009916000002704095,84.2920529999974,[np.float64(0.09166666666666666)],[np.float64(0.4013888888888889)],[1],[0],[0],[1.306461100000888],['Target'],TWO,001,2025-10-03_08h34.50.824,Visual Search Experiment,,2025.1.1,60.06893510949264,2025-10-03 08h35.06.598694 +0530,
51,0,51,[np.float64(0.28888888888888886)],[np.float64(0.34305555555555556)],[1],[0],[0],[1.5378100000016275],['Target'],51,0,51,0,84.32241169999907,,5,84.30366830000276,84.32241169999907,84.32241169999907,0.011498599997139536,85.84161570000288,[np.float64(0.28888888888888886)],[np.float64(0.34305555555555556)],[1],[0],[0],[1.5378100000016275],['Target'],TWO,001,2025-10-03_08h34.50.824,Visual Search Experiment,,2025.1.1,60.06893510949264,2025-10-03 08h35.06.598694 +0530,
52,0,52,[np.float64(-0.41388888888888886)],[np.float64(-0.2125)],[1],[0],[0],[1.7616388999958872],['Target'],52,0,52,0,85.88914420000219,,10,85.86314809999749,85.88914420000219,85.88914420000219,0.02143939999950817,87.62492480000219,[np.float64(-0.41388888888888886)],[np.float64(-0.2125)],[1],[0],[0],[1.7616388999958872],['Target'],TWO,001,2025-10-03_08h34.50.824,Visual Search Experiment,,2025.1.1,60.06893510949264,2025-10-03 08h35.06.598694 +0530,
53,0,53,[np.float64(0.44583333333333336)],[np.float64(0.002777777777777778)],[1],[0],[0],[1.5938372000018717],['Target'],53,0,53,0,87.67765659999714,,10,87.64764779999678,87.67765659999714,87.67765659999714,0.022601300006499514,89.24164059999748,[np.float64(0.44583333333333336)],[np.float64(0.002777777777777778)],[1],[0],[0],[1.5938372000018717],['Target'],TWO,001,2025-10-03_08h34.50.824,Visual Search Experiment,,2025.1.1,60.06893510949264,2025-10-03 08h35.06.598694 +0530,
54,0,54,[np.float64(-0.02638888888888889)],[np.float64(0.43333333333333335)],[1],[0],[0],[2.020177099999273],['Target'],54,0,54,0,89.27234390000376,,5,89.25391870000021,89.27234390000376,89.27234390000376,0.01217460000043502,91.2742470000012,[np.float64(-0.02638888888888889)],[np.float64(0.43333333333333335)],[1],[0],[0],[2.020177099999273],['Target'],TWO,001,2025-10-03_08h34.50.824,Visual Search Experiment,,2025.1.1,60.06893510949264,2025-10-03 08h35.06.598694 +0530,
55,0,55,[np.float64(0.1736111111111111)],[np.float64(0.125)],[1],[0],[0],[1.9307454000008875],['Target'],55,0,55,0,91.3050790999987,,10,91.2929621000003,91.3050790999987,91.3050790999987,0.018636200002219994,93.22384790000069,[np.float64(0.1736111111111111)],[np.float64(0.125)],[1],[0],[0],[1.9307454000008875],['Target'],TWO,001,2025-10-03_08h34.50.824,Visual Search Experiment,,2025.1.1,60.06893510949264,2025-10-03 08h35.06.598694 +0530,
56,0,56,[np.float64(0.4638888888888889)],[np.float64(0.48055555555555557)],[1],[0],[0],[1.2309815999979037],['Target'],56,0,56,0,93.25463270000182,,10,93.24341219999769,93.25463270000182,93.25463270000182,0.019455500005278736,94.47455020000052,[np.float64(0.4638888888888889)],[np.float64(0.48055555555555557)],[1],[0],[0],[1.2309815999979037],['Target'],TWO,001,2025-10-03_08h34.50.824,Visual Search Experiment,,2025.1.1,60.06893510949264,2025-10-03 08h35.06.598694 +0530,
57,0,57,"[np.float64(0.20694444444444443), np.float64(0.2013888888888889)]","[np.float64(-0.14027777777777778), np.float64(-0.1736111111111111)]","[1, 1]","[0, 0]","[0, 0]","[1.3875054999953136, 2.2365170999983093]","[None, 'Target']",57,0,57,0,94.50524630000291,,5,94.48637400000007,94.50524630000291,94.50524630000291,0.011703500000294298,96.72305880000204,"[np.float64(0.20694444444444443), np.float64(0.2013888888888889)]","[np.float64(-0.14027777777777778), np.float64(-0.1736111111111111)]","[1, 1]","[0, 0]","[0, 0]","[1.3875054999953136, 2.2365170999983093]","[None, 'Target']",TWO,001,2025-10-03_08h34.50.824,Visual Search Experiment,,2025.1.1,60.06893510949264,2025-10-03 08h35.06.598694 +0530,
58,0,58,"[np.float64(0.1375), np.float64(0.1625)]","[np.float64(0.24166666666666667), np.float64(0.24166666666666667)]","[1, 1]","[0, 0]","[0, 0]","[1.6460982000062359, 2.378682900001877]","[None, 'Target']",58,0,58,0,96.77230959999724,,10,96.74462050000147,96.77230959999724,96.77230959999724,0.02146319999883417,99.12350149999838,"[np.float64(0.1375), np.float64(0.1625)]","[np.float64(0.24166666666666667), np.float64(0.24166666666666667)]","[1, 1]","[0, 0]","[0, 0]","[1.6460982000062359, 2.378682900001877]","[None, 'Target']",TWO,001,2025-10-03_08h34.50.824,Visual Search Experiment,,2025.1.1,60.06893510949264,2025-10-03 08h35.06.598694 +0530,
59,0,59,[np.float64(-0.44166666666666665)],[np.float64(-0.39444444444444443)],[1],[0],[0],[2.163442799996119],['Target'],59,0,59,0,99.15381599999819,,10,99.14343989999907,99.15381599999819,99.15381599999819,0.019693299997015856,101.30706340000324,[np.float64(-0.44166666666666665)],[np.float64(-0.39444444444444443)],[1],[0],[0],[2.163442799996119],['Target'],TWO,001,2025-10-03_08h34.50.824,Visual Search Experiment,,2025.1.1,60.06893510949264,2025-10-03 08h35.06.598694 +0530,
60,0,60,[np.float64(0.3)],[np.float64(0.14166666666666666)],[1],[0],[0],[1.5969776999991154],['Target'],60,0,60,0,101.33837250000215,,5,101.3261072000023,101.33837250000215,101.33837250000215,0.01883609999640612,102.92333469999721,[np.float64(0.3)],[np.float64(0.14166666666666666)],[1],[0],[0],[1.5969776999991154],['Target'],TWO,001,2025-10-03_08h34.50.824,Visual Search Experiment,,2025.1.1,60.06893510949264,2025-10-03 08h35.06.598694 +0530,
61,0,61,[np.float64(-0.4236111111111111)],[np.float64(-0.11666666666666667)],[1],[0],[0],[1.3897659000067506],['Target'],61,0,61,0,102.95451209999737,,5,102.93394129999797,102.95451209999737,102.95451209999737,0.010507300001336262,104.32388489999721,[np.float64(-0.4236111111111111)],[np.float64(-0.11666666666666667)],[1],[0],[0],[1.3897659000067506],['Target'],TWO,001,2025-10-03_08h34.50.824,Visual Search Experiment,,2025.1.1,60.06893510949264,2025-10-03 08h35.06.598694 +0530,
62,0,62,[np.float64(-0.25277777777777777)],[np.float64(0.13472222222222222)],[1],[0],[0],[1.5875043000050937],['Target'],62,0,62,0,104.35390319999715,,5,104.33632499999658,104.35390319999715,104.35390319999715,0.012332500002230518,105.92401339999924,[np.float64(-0.25277777777777777)],[np.float64(0.13472222222222222)],[1],[0],[0],[1.5875043000050937],['Target'],TWO,001,2025-10-03_08h34.50.824,Visual Search Experiment,,2025.1.1,60.06893510949264,2025-10-03 08h35.06.598694 +0530,
63,0,63,[np.float64(0.25555555555555554)],[np.float64(0.4125)],[1],[0],[0],[1.2919372000033036],['Target'],63,0,63,0,105.97142650000023,,10,105.94734269999753,105.97142650000023,105.97142650000023,0.02323949999845354,107.23945990000357,[np.float64(0.25555555555555554)],[np.float64(0.4125)],[1],[0],[0],[1.2919372000033036],['Target'],TWO,001,2025-10-03_08h34.50.824,Visual Search Experiment,,2025.1.1,60.06893510949264,2025-10-03 08h35.06.598694 +0530,
64,0,64,[np.float64(-0.4083333333333333)],[np.float64(-0.013888888888888888)],[1],[0],[0],[1.6907274999975925],['Target'],64,0,64,0,107.2882260999977,,10,107.26545769999939,107.2882260999977,107.2882260999977,0.025782800003071316,108.95634019999852,[np.float64(-0.4083333333333333)],[np.float64(-0.013888888888888888)],[1],[0],[0],[1.6907274999975925],['Target'],TWO,001,2025-10-03_08h34.50.824,Visual Search Experiment,,2025.1.1,60.06893510949264,2025-10-03 08h35.06.598694 +0530,
65,0,65,[np.float64(-0.17222222222222222)],[np.float64(0.1986111111111111)],[1],[0],[0],[1.3058211999959894],['Target'],65,0,65,0,108.98652630000288,,5,108.96621030000097,108.98652630000288,108.98652630000288,0.00976960000116378,110.27216710000357,[np.float64(-0.17222222222222222)],[np.float64(0.1986111111111111)],[1],[0],[0],[1.3058211999959894],['Target'],TWO,001,2025-10-03_08h34.50.824,Visual Search Experiment,,2025.1.1,60.06893510949264,2025-10-03 08h35.06.598694 +0530,
66,0,66,[np.float64(0.2722222222222222)],[np.float64(-0.03888888888888889)],[1],[0],[0],[1.5319110000054934],['Target'],66,0,66,0,110.30312340000091,,10,110.28926579999825,110.30312340000091,110.30312340000091,0.01702079999813577,111.82135689999996,[np.float64(0.2722222222222222)],[np.float64(-0.03888888888888889)],[1],[0],[0],[1.5319110000054934],['Target'],TWO,001,2025-10-03_08h34.50.824,Visual Search Experiment,,2025.1.1,60.06893510949264,2025-10-03 08h35.06.598694 +0530,
67,0,67,[np.float64(-0.13194444444444445)],[np.float64(0.2513888888888889)],[1],[0],[0],[1.308509900001809],['Target'],67,0,67,0,111.85358870000346,,5,111.83012279999821,111.85358870000346,111.85358870000346,0.008648600000014994,113.13877779999893,[np.float64(-0.13194444444444445)],[np.float64(0.2513888888888889)],[1],[0],[0],[1.308509900001809],['Target'],TWO,001,2025-10-03_08h34.50.824,Visual Search Experiment,,2025.1.1,60.06893510949264,2025-10-03 08h35.06.598694 +0530,
68,0,68,[np.float64(-0.13333333333333333)],[np.float64(-0.225)],[1],[0],[0],[1.4577665999968303],['Target'],68,0,68,0,113.1694817000025,,5,113.14854159999959,113.1694817000025,113.1694817000025,0.009638200004701503,114.6064475000021,[np.float64(-0.13333333333333333)],[np.float64(-0.225)],[1],[0],[0],[1.4577665999968303],['Target'],TWO,001,2025-10-03_08h34.50.824,Visual Search Experiment,,2025.1.1,60.06893510949264,2025-10-03 08h35.06.598694 +0530,
69,0,69,[np.float64(0.029166666666666667)],[np.float64(0.08055555555555556)],[1],[0],[0],[1.91260560000228],['Target'],69,0,69,0,114.63624539999728,,10,114.62518109999655,114.63624539999728,114.63624539999728,0.018624399999680463,116.53795939999691,[np.float64(0.029166666666666667)],[np.float64(0.08055555555555556)],[1],[0],[0],[1.91260560000228],['Target'],TWO,001,2025-10-03_08h34.50.824,Visual Search Experiment,,2025.1.1,60.06893510949264,2025-10-03 08h35.06.598694 +0530,
70,0,70,[np.float64(-0.3597222222222222)],[np.float64(-0.2777777777777778)],[1],[0],[0],[1.5487855000028503],['Target'],70,0,70,0,116.56939350000175,,10,116.55608460000076,116.56939350000175,116.56939350000175,0.017884000000776723,118.1050039000038,[np.float64(-0.3597222222222222)],[np.float64(-0.2777777777777778)],[1],[0],[0],[1.5487855000028503],['Target'],TWO,001,2025-10-03_08h34.50.824,Visual Search Experiment,,2025.1.1,60.06893510949264,2025-10-03 08h35.06.598694 +0530,
71,0,71,[np.float64(-0.40555555555555556)],[np.float64(0.3)],[1],[0],[0],[1.407636800002365],['Target'],71,0,71,0,118.15413439999975,,10,118.13411089999863,118.15413439999975,118.15413439999975,0.029036500003712717,119.54216129999986,[np.float64(-0.40555555555555556)],[np.float64(0.3)],[1],[0],[0],[1.407636800002365],['Target'],TWO,001,2025-10-03_08h34.50.824,Visual Search Experiment,,2025.1.1,60.06893510949264,2025-10-03 08h35.06.598694 +0530,
72,0,72,[np.float64(0.36666666666666664)],[np.float64(-0.14166666666666666)],[1],[0],[0],[1.6645255999974324],['Target'],72,0,72,0,119.56926090000343,,5,119.5575342000011,119.56926090000343,119.56926090000343,0.015165500000875909,121.2221916999988,[np.float64(0.36666666666666664)],[np.float64(-0.14166666666666666)],[1],[0],[0],[1.6645255999974324],['Target'],TWO,001,2025-10-03_08h34.50.824,Visual Search Experiment,,2025.1.1,60.06893510949264,2025-10-03 08h35.06.598694 +0530,
73,0,73,[np.float64(-0.29444444444444445)],[np.float64(-0.14166666666666666)],[1],[0],[0],[1.530477599997539],['Target'],73,0,73,0,121.25212440000178,,5,121.23105750000104,121.25212440000178,121.25212440000178,0.008784799996647052,122.76172689999657,[np.float64(-0.29444444444444445)],[np.float64(-0.14166666666666666)],[1],[0],[0],[1.530477599997539],['Target'],TWO,001,2025-10-03_08h34.50.824,Visual Search Experiment,,2025.1.1,60.06893510949264,2025-10-03 08h35.06.598694 +0530,
74,0,74,[np.float64(-0.2972222222222222)],[np.float64(0.18611111111111112)],[1],[0],[0],[1.1998482999988482],['Target'],74,0,74,0,122.80321520000143,,10,122.78754260000278,122.80321520000143,122.80321520000143,0.02568470000551315,123.9875486000019,[np.float64(-0.2972222222222222)],[np.float64(0.18611111111111112)],[1],[0],[0],[1.1998482999988482],['Target'],TWO,001,2025-10-03_08h34.50.824,Visual Search Experiment,,2025.1.1,60.06893510949264,2025-10-03 08h35.06.598694 +0530,
75,0,75,[np.float64(-0.3416666666666667)],[np.float64(-0.3638888888888889)],[1],[0],[0],[2.025298799999291],['Target'],75,0,75,0,124.01858809999976,,5,123.99653820000094,124.01858809999976,124.01858809999976,0.00888880000275094,126.02197249999881,[np.float64(-0.3416666666666667)],[np.float64(-0.3638888888888889)],[1],[0],[0],[2.025298799999291],['Target'],TWO,001,2025-10-03_08h34.50.824,Visual Search Experiment,,2025.1.1,60.06893510949264,2025-10-03 08h35.06.598694 +0530,
76,0,76,[np.float64(0.15)],[np.float64(0.28888888888888886)],[1],[0],[0],[1.5854059999983292],['Target'],76,0,76,0,126.05187619999924,,5,126.03506000000198,126.05187619999924,126.05187619999924,0.013004100001126062,127.62060709999787,[np.float64(0.15)],[np.float64(0.28888888888888886)],[1],[0],[0],[1.5854059999983292],['Target'],TWO,001,2025-10-03_08h34.50.824,Visual Search Experiment,,2025.1.1,60.06893510949264,2025-10-03 08h35.06.598694 +0530,
77,0,77,[np.float64(0.14444444444444443)],[np.float64(-0.19027777777777777)],[1],[0],[0],[1.741420599995763],['Target'],77,0,77,0,127.65153049999935,,5,127.62907599999744,127.65153049999935,127.65153049999935,0.008391299998038448,129.37068680000084,[np.float64(0.14444444444444443)],[np.float64(-0.19027777777777777)],[1],[0],[0],[1.741420599995763],['Target'],TWO,001,2025-10-03_08h34.50.824,Visual Search Experiment,,2025.1.1,60.06893510949264,2025-10-03 08h35.06.598694 +0530,
78,0,78,[np.float64(-0.20555555555555555)],[np.float64(-0.006944444444444444)],[1],[0],[0],[1.2029581000024336],['Target'],78,0,78,0,129.40159239999775,,5,129.3846631999986,129.40159239999775,129.40159239999775,0.01383229999919422,130.58779299999878,[np.float64(-0.20555555555555555)],[np.float64(-0.006944444444444444)],[1],[0],[0],[1.2029581000024336],['Target'],TWO,001,2025-10-03_08h34.50.824,Visual Search Experiment,,2025.1.1,60.06893510949264,2025-10-03 08h35.06.598694 +0530,
79,0,79,"[np.float64(0.16944444444444445), np.float64(0.19305555555555556)]","[np.float64(-0.002777777777777778), np.float64(0.011111111111111112)]","[1, 1]","[0, 0]","[0, 0]","[1.343399600002158, 2.0761047000050894]","[None, 'Target']",79,0,79,0,130.63592349999817,,10,130.6098742000031,130.63592349999817,130.63592349999817,0.02199720000498928,132.68612289999874,"[np.float64(0.16944444444444445), np.float64(0.19305555555555556)]","[np.float64(-0.002777777777777778), np.float64(0.011111111111111112)]","[1, 1]","[0, 0]","[0, 0]","[1.343399600002158, 2.0761047000050894]","[None, 'Target']",TWO,001,2025-10-03_08h34.50.824,Visual Search Experiment,,2025.1.1,60.06893510949264,2025-10-03 08h35.06.598694 +0530,
80,0,80,[np.float64(0.10277777777777777)],[np.float64(-0.1597222222222222)],[1],[0],[0],[1.7590307999998913],['Target'],80,0,80,0,132.71753909999825,,5,132.6950483000037,132.71753909999825,132.71753909999825,0.008808300000964664,134.45422900000267,[np.float64(0.10277777777777777)],[np.float64(-0.1597222222222222)],[1],[0],[0],[1.7590307999998913],['Target'],TWO,001,2025-10-03_08h34.50.824,Visual Search Experiment,,2025.1.1,60.06893510949264,2025-10-03 08h35.06.598694 +0530,
81,0,81,[np.float64(-0.16944444444444445)],[np.float64(0.1361111111111111)],[1],[0],[0],[1.272749499999918],['Target'],81,0,81,0,134.50211929999932,,10,134.48042810000334,134.50211929999932,134.50211929999932,0.026106700002856087,135.75333189999947,[np.float64(-0.16944444444444445)],[np.float64(0.1361111111111111)],[1],[0],[0],[1.272749499999918],['Target'],TWO,001,2025-10-03_08h34.50.824,Visual Search Experiment,,2025.1.1,60.06893510949264,2025-10-03 08h35.06.598694 +0530,
82,0,82,[np.float64(0.14722222222222223)],[np.float64(0.06805555555555555)],[1],[0],[0],[1.1069659000058891],['Target'],82,0,82,0,135.78578199999902,,5,135.76240099999995,135.78578199999902,135.78578199999902,0.008978399993793573,136.86952849999943,[np.float64(0.14722222222222223)],[np.float64(0.06805555555555555)],[1],[0],[0],[1.1069659000058891],['Target'],TWO,001,2025-10-03_08h34.50.824,Visual Search Experiment,,2025.1.1,60.06893510949264,2025-10-03 08h35.06.598694 +0530,
83,0,83,[np.float64(-0.0125)],[np.float64(0.4597222222222222)],[1],[0],[0],[1.933503499996732],['Target'],83,0,83,0,136.9002563000031,,10,136.88657149999926,136.9002563000031,136.9002563000031,0.01696760000049835,138.82021740000346,[np.float64(-0.0125)],[np.float64(0.4597222222222222)],[1],[0],[0],[1.933503499996732],['Target'],TWO,001,2025-10-03_08h34.50.824,Visual Search Experiment,,2025.1.1,60.06893510949264,2025-10-03 08h35.06.598694 +0530,
84,0,84,"[np.float64(0.16666666666666666), np.float64(0.14305555555555555)]","[np.float64(0.20555555555555555), np.float64(0.20555555555555555)]","[1, 1]","[0, 0]","[0, 0]","[1.0375782999981311, 1.8543556000004173]","[None, 'Target']",84,0,84,0,138.85055200000352,,5,138.83188630000222,138.85055200000352,138.85055200000352,0.011558400001376867,140.6863854999974,"[np.float64(0.16666666666666666), np.float64(0.14305555555555555)]","[np.float64(0.20555555555555555), np.float64(0.20555555555555555)]","[1, 1]","[0, 0]","[0, 0]","[1.0375782999981311, 1.8543556000004173]","[None, 'Target']",TWO,001,2025-10-03_08h34.50.824,Visual Search Experiment,,2025.1.1,60.06893510949264,2025-10-03 08h35.06.598694 +0530,
85,0,85,[np.float64(-0.48333333333333334)],[np.float64(0.4222222222222222)],[1],[0],[0],[2.190829600003781],['Target'],85,0,85,0,140.71692220000114,,5,140.6953416000033,140.71692220000114,140.71692220000114,0.008857099994202144,142.88629819999915,[np.float64(-0.48333333333333334)],[np.float64(0.4222222222222222)],[1],[0],[0],[2.190829600003781],['Target'],TWO,001,2025-10-03_08h34.50.824,Visual Search Experiment,,2025.1.1,60.06893510949264,2025-10-03 08h35.06.598694 +0530,
86,0,86,[np.float64(0.08333333333333333)],[np.float64(0.32916666666666666)],[1],[0],[0],[1.313694199998281],['Target'],86,0,86,0,142.9163860999979,,10,142.90532930000336,142.9163860999979,142.9163860999979,0.018953799997689202,144.21918200000073,[np.float64(0.08333333333333333)],[np.float64(0.32916666666666666)],[1],[0],[0],[1.313694199998281],['Target'],TWO,001,2025-10-03_08h34.50.824,Visual Search Experiment,,2025.1.1,60.06893510949264,2025-10-03 08h35.06.598694 +0530,
87,0,87,[np.float64(-0.3875)],[np.float64(0.32083333333333336)],[1],[0],[0],[1.387319400004344],['Target'],87,0,87,0,144.2521682000006,,5,144.23180429999775,144.2521682000006,144.2521682000006,0.012512799999967683,145.6192607999983,[np.float64(-0.3875)],[np.float64(0.32083333333333336)],[1],[0],[0],[1.387319400004344],['Target'],TWO,001,2025-10-03_08h34.50.824,Visual Search Experiment,,2025.1.1,60.06893510949264,2025-10-03 08h35.06.598694 +0530,
88,0,88,[np.float64(-0.3875)],[np.float64(0.4527777777777778)],[1],[0],[0],[1.1651923999961582],['Target'],88,0,88,0,145.64958679999836,,10,145.6370343000017,145.64958679999836,145.64958679999836,0.017687699997622985,146.8023822000032,[np.float64(-0.3875)],[np.float64(0.4527777777777778)],[1],[0],[0],[1.1651923999961582],['Target'],TWO,001,2025-10-03_08h34.50.824,Visual Search Experiment,,2025.1.1,60.06893510949264,2025-10-03 08h35.06.598694 +0530,
89,0,89,[np.float64(-0.005555555555555556)],[np.float64(-0.4708333333333333)],[1],[0],[0],[2.6254389000023366],['Target'],89,0,89,0,146.85056970000005,,10,146.8260564000011,146.85056970000005,146.85056970000005,0.02355179999722168,149.45167880000372,[np.float64(-0.005555555555555556)],[np.float64(-0.4708333333333333)],[1],[0],[0],[2.6254389000023366],['Target'],TWO,001,2025-10-03_08h34.50.824,Visual Search Experiment,,2025.1.1,60.06893510949264,2025-10-03 08h35.06.598694 +0530,
90,0,90,"[np.float64(0.19305555555555556), np.float64(0.1986111111111111)]","[np.float64(-0.4791666666666667), np.float64(-0.4736111111111111)]","[1, 1]","[0, 0]","[0, 0]","[1.066457499997341, 1.84693949999928]","[None, 'Target']",90,0,90,0,149.48290080000152,,10,149.47050100000342,149.48290080000152,149.48290080000152,0.018723399996815715,151.3175732000018,"[np.float64(0.19305555555555556), np.float64(0.1986111111111111)]","[np.float64(-0.4791666666666667), np.float64(-0.4736111111111111)]","[1, 1]","[0, 0]","[0, 0]","[1.066457499997341, 1.84693949999928]","[None, 'Target']",TWO,001,2025-10-03_08h34.50.824,Visual Search Experiment,,2025.1.1,60.06893510949264,2025-10-03 08h35.06.598694 +0530,
91,0,91,[np.float64(0.4638888888888889)],[np.float64(-0.4444444444444444)],[1],[0],[0],[1.2416357999973116],['Target'],91,0,91,0,151.34919249999803,,5,151.3260894999985,151.34919249999803,151.34919249999803,0.008402400002523791,152.56785200000013,[np.float64(0.4638888888888889)],[np.float64(-0.4444444444444444)],[1],[0],[0],[1.2416357999973116],['Target'],TWO,001,2025-10-03_08h34.50.824,Visual Search Experiment,,2025.1.1,60.06893510949264,2025-10-03 08h35.06.598694 +0530,
92,0,92,[np.float64(0.14166666666666666)],[np.float64(0.1527777777777778)],[1],[0],[0],[1.4565842999945744],['Target'],92,0,92,0,152.5987355000034,,10,152.58505439999863,152.5987355000034,152.5987355000034,0.017124099998909514,154.04185239999788,[np.float64(0.14166666666666666)],[np.float64(0.1527777777777778)],[1],[0],[0],[1.4565842999945744],['Target'],TWO,001,2025-10-03_08h34.50.824,Visual Search Experiment,,2025.1.1,60.06893510949264,2025-10-03 08h35.06.598694 +0530,
93,0,93,[np.float64(-0.1763888888888889)],[np.float64(0.33611111111111114)],[1],[0],[0],[1.9563318000000436],['Target'],93,0,93,0,154.0832556000023,,5,154.06108140000288,154.0832556000023,154.0832556000023,0.0191017000033753,156.01757709999947,[np.float64(-0.1763888888888889)],[np.float64(0.33611111111111114)],[1],[0],[0],[1.9563318000000436],['Target'],TWO,001,2025-10-03_08h34.50.824,Visual Search Experiment,,2025.1.1,60.06893510949264,2025-10-03 08h35.06.598694 +0530,
94,0,94,[np.float64(0.08055555555555556)],[np.float64(0.07777777777777778)],[1],[0],[0],[1.1909660999954212],['Target'],94,0,94,0,156.04936720000114,,5,156.02605590000167,156.04936720000114,156.04936720000114,0.008396200006245635,157.21718939999846,[np.float64(0.08055555555555556)],[np.float64(0.07777777777777778)],[1],[0],[0],[1.1909660999954212],['Target'],TWO,001,2025-10-03_08h34.50.824,Visual Search Experiment,,2025.1.1,60.06893510949264,2025-10-03 08h35.06.598694 +0530,
95,0,95,[np.float64(-0.4)],[np.float64(0.3819444444444444)],[1],[0],[0],[1.3465831999928923],['Target'],95,0,95,0,157.24862830000347,,10,157.23668880000332,157.24862830000347,157.24862830000347,0.019323100001201965,158.58342149999953,[np.float64(-0.4)],[np.float64(0.3819444444444444)],[1],[0],[0],[1.3465831999928923],['Target'],TWO,001,2025-10-03_08h34.50.824,Visual Search Experiment,,2025.1.1,60.06893510949264,2025-10-03 08h35.06.598694 +0530,
96,0,96,[np.float64(0.45555555555555555)],[np.float64(-0.26666666666666666)],[1],[0],[0],[2.3308978999993997],['Target'],96,0,96,0,158.61463679999724,,10,158.60333640000317,158.61463679999724,158.61463679999724,0.019805399999313522,160.93437399999675,[np.float64(0.45555555555555555)],[np.float64(-0.26666666666666666)],[1],[0],[0],[2.3308978999993997],['Target'],TWO,001,2025-10-03_08h34.50.824,Visual Search Experiment,,2025.1.1,60.06893510949264,2025-10-03 08h35.06.598694 +0530,
97,0,97,[np.float64(0.008333333333333333)],[np.float64(-0.06388888888888888)],[1],[0],[0],[1.6798688999988372],['Target'],97,0,97,0,160.96458549999807,,10,160.95389550000255,160.96458549999807,160.96458549999807,0.01941860000079032,162.63389740000275,[np.float64(0.008333333333333333)],[np.float64(-0.06388888888888888)],[1],[0],[0],[1.6798688999988372],['Target'],TWO,001,2025-10-03_08h34.50.824,Visual Search Experiment,,2025.1.1,60.06893510949264,2025-10-03 08h35.06.598694 +0530,
98,0,98,[np.float64(-0.20277777777777778)],[np.float64(0.4527777777777778)],[1],[0],[0],[1.400870000004943],['Target'],98,0,98,0,162.6649774999969,,10,162.65040330000193,162.6649774999969,162.6649774999969,0.01640860000043176,164.0514206000007,[np.float64(-0.20277777777777778)],[np.float64(0.4527777777777778)],[1],[0],[0],[1.400870000004943],['Target'],TWO,001,2025-10-03_08h34.50.824,Visual Search Experiment,,2025.1.1,60.06893510949264,2025-10-03 08h35.06.598694 +0530,
99,0,99,[np.float64(-0.4152777777777778)],[np.float64(0.17777777777777778)],[1],[0],[0],[1.3964237999971374],['Target'],99,0,99,0,164.0809287000011,,10,164.0709646000032,164.0809287000011,164.0809287000011,0.019444400000793394,165.46757079999952,[np.float64(-0.4152777777777778)],[np.float64(0.17777777777777778)],[1],[0],[0],[1.3964237999971374],['Target'],TWO,001,2025-10-03_08h34.50.824,Visual Search Experiment,,2025.1.1,60.06893510949264,2025-10-03 08h35.06.598694 +0530,
100,0,100,[np.float64(0.40694444444444444)],[np.float64(0.4638888888888889)],[1],[0],[0],[1.8137961999964318],['Target'],100,0,100,0,165.4975345999992,,10,165.48685909999767,165.4975345999992,165.4975345999992,0.019075600001087878,167.300796800002,[np.float64(0.40694444444444444)],[np.float64(0.4638888888888889)],[1],[0],[0],[1.8137961999964318],['Target'],TWO,001,2025-10-03_08h34.50.824,Visual Search Experiment,,2025.1.1,60.06893510949264,2025-10-03 08h35.06.598694 +0530,
101,0,101,"[np.float64(0.4041666666666667), np.float64(0.40694444444444444)]","[np.float64(0.3416666666666667), np.float64(0.325)]","[1, 1]","[0, 0]","[0, 0]","[1.4906654000005801, 2.291266499996709]","[None, 'Target']",101,0,101,0,167.33077539999795,,5,167.3095620000022,167.33077539999795,167.33077539999795,0.008670700000948273,169.60099269999773,"[np.float64(0.4041666666666667), np.float64(0.40694444444444444)]","[np.float64(0.3416666666666667), np.float64(0.325)]","[1, 1]","[0, 0]","[0, 0]","[1.4906654000005801, 2.291266499996709]","[None, 'Target']",TWO,001,2025-10-03_08h34.50.824,Visual Search Experiment,,2025.1.1,60.06893510949264,2025-10-03 08h35.06.598694 +0530,
102,0,102,[np.float64(-0.09861111111111111)],[np.float64(0.11666666666666667)],[1],[0],[0],[1.8166198000035365],['Target'],102,0,102,0,169.63095530000282,,5,169.615947899998,169.63095530000282,169.63095530000282,0.014810499997111037,171.43277349999698,[np.float64(-0.09861111111111111)],[np.float64(0.11666666666666667)],[1],[0],[0],[1.8166198000035365],['Target'],TWO,001,2025-10-03_08h34.50.824,Visual Search Experiment,,2025.1.1,60.06893510949264,2025-10-03 08h35.06.598694 +0530,
103,0,103,[np.float64(0.09583333333333334)],[np.float64(-0.45416666666666666)],[1],[0],[0],[2.4239306000017677],['Target'],103,0,103,0,171.48161039999832,,10,171.45925890000217,171.48161039999832,171.48161039999832,0.026332599998568185,173.883370800002,[np.float64(0.09583333333333334)],[np.float64(-0.45416666666666666)],[1],[0],[0],[2.4239306000017677],['Target'],TWO,001,2025-10-03_08h34.50.824,Visual Search Experiment,,2025.1.1,60.06893510949264,2025-10-03 08h35.06.598694 +0530,
104,0,104,[np.float64(0.16666666666666666)],[np.float64(0.4847222222222222)],[1],[0],[0],[2.6143142000000807],['Target'],104,0,104,0,173.91324980000354,,10,173.90146059999825,173.91324980000354,173.91324980000354,0.017997399998421315,176.51597120000224,[np.float64(0.16666666666666666)],[np.float64(0.4847222222222222)],[1],[0],[0],[2.6143142000000807],['Target'],TWO,001,2025-10-03_08h34.50.824,Visual Search Experiment,,2025.1.1,60.06893510949264,2025-10-03 08h35.06.598694 +0530,
105,0,105,[np.float64(-0.4736111111111111)],[np.float64(0.26944444444444443)],[1],[0],[0],[2.687396400004218],['Target'],105,0,105,0,176.54714080000122,,5,176.5277350000033,176.54714080000122,176.54714080000122,0.01158199999917997,179.21531490000052,[np.float64(-0.4736111111111111)],[np.float64(0.26944444444444443)],[1],[0],[0],[2.687396400004218],['Target'],TWO,001,2025-10-03_08h34.50.824,Visual Search Experiment,,2025.1.1,60.06893510949264,2025-10-03 08h35.06.598694 +0530,
106,0,106,[np.float64(0.45694444444444443)],[np.float64(0.0763888888888889)],[1],[0],[0],[2.86089709999942],['Target'],106,0,106,0,179.26884820000123,,10,179.2378761,179.26884820000123,179.26884820000123,0.02245559999573743,182.09894099999656,[np.float64(0.45694444444444443)],[np.float64(0.0763888888888889)],[1],[0],[0],[2.86089709999942],['Target'],TWO,001,2025-10-03_08h34.50.824,Visual Search Experiment,,2025.1.1,60.06893510949264,2025-10-03 08h35.06.598694 +0530,
107,0,107,[np.float64(-0.32222222222222224)],[np.float64(0.4125)],[1],[0],[0],[1.4405973999964772],['Target'],107,0,107,0,182.12933850000263,,5,182.1083301000035,182.12933850000263,182.12933850000263,0.009281799997552298,183.54909190000035,[np.float64(-0.32222222222222224)],[np.float64(0.4125)],[1],[0],[0],[1.4405973999964772],['Target'],TWO,001,2025-10-03_08h34.50.824,Visual Search Experiment,,2025.1.1,60.06893510949264,2025-10-03 08h35.06.598694 +0530,
108,0,108,[np.float64(-0.2)],[np.float64(-0.3736111111111111)],[1],[0],[0],[2.158926699994481],['Target'],108,0,108,0,183.59702339999785,,10,183.57160619999922,183.59702339999785,183.59702339999785,0.02227139999740757,185.73067820000142,[np.float64(-0.2)],[np.float64(-0.3736111111111111)],[1],[0],[0],[2.158926699994481],['Target'],TWO,001,2025-10-03_08h34.50.824,Visual Search Experiment,,2025.1.1,60.06893510949264,2025-10-03 08h35.06.598694 +0530,
109,0,109,[np.float64(-0.2875)],[np.float64(-0.38055555555555554)],[1],[0],[0],[1.5545587000015075],['Target'],109,0,109,0,185.7622932000013,,10,185.7486024000027,185.7622932000013,185.7622932000013,0.017823599999246653,187.30329999999958,[np.float64(-0.2875)],[np.float64(-0.38055555555555554)],[1],[0],[0],[1.5545587000015075],['Target'],TWO,001,2025-10-03_08h34.50.824,Visual Search Experiment,,2025.1.1,60.06893510949264,2025-10-03 08h35.06.598694 +0530,
110,0,110,[np.float64(-0.0375)],[np.float64(-0.33055555555555555)],[1],[0],[0],[1.5257128999946872],['Target'],110,0,110,0,187.35085019999678,,10,187.32167610000033,187.35085019999678,187.35085019999678,0.01827709999633953,188.8475210999968,[np.float64(-0.0375)],[np.float64(-0.33055555555555555)],[1],[0],[0],[1.5257128999946872],['Target'],TWO,001,2025-10-03_08h34.50.824,Visual Search Experiment,,2025.1.1,60.06893510949264,2025-10-03 08h35.06.598694 +0530,
111,0,111,[np.float64(0.46944444444444444)],[np.float64(0.4263888888888889)],[1],[0],[0],[1.8753278000003775],['Target'],111,0,111,0,188.87901080000302,,5,188.85600220000197,188.87901080000302,188.87901080000302,0.008374200006073806,190.73148260000016,[np.float64(0.46944444444444444)],[np.float64(0.4263888888888889)],[1],[0],[0],[1.8753278000003775],['Target'],TWO,001,2025-10-03_08h34.50.824,Visual Search Experiment,,2025.1.1,60.06893510949264,2025-10-03 08h35.06.598694 +0530,
112,0,112,[np.float64(0.4236111111111111)],[np.float64(-0.2875)],[1],[0],[0],[1.6791336000023875],['Target'],112,0,112,0,190.77970559999812,,10,190.75391439999657,190.77970559999812,190.77970559999812,0.022325300000375137,192.43323370000144,[np.float64(0.4236111111111111)],[np.float64(-0.2875)],[1],[0],[0],[1.6791336000023875],['Target'],TWO,001,2025-10-03_08h34.50.824,Visual Search Experiment,,2025.1.1,60.06893510949264,2025-10-03 08h35.06.598694 +0530,
113,0,113,[np.float64(-0.19722222222222222)],[np.float64(-0.11944444444444445)],[1],[0],[0],[1.383310100005474],['Target'],113,0,113,0,192.4619215999992,,5,192.44737960000202,192.4619215999992,192.4619215999992,0.01399659999879077,193.8308610000022,[np.float64(-0.19722222222222222)],[np.float64(-0.11944444444444445)],[1],[0],[0],[1.383310100005474],['Target'],TWO,001,2025-10-03_08h34.50.824,Visual Search Experiment,,2025.1.1,60.06893510949264,2025-10-03 08h35.06.598694 +0530,
114,0,114,[np.float64(0.44305555555555554)],[np.float64(-0.3902777777777778)],[1],[0],[0],[1.7047870999958832],['Target'],114,0,114,0,193.86193330000242,,5,193.8421692999982,193.86193330000242,193.86193330000242,0.011221900000236928,195.5470975999997,[np.float64(0.44305555555555554)],[np.float64(-0.3902777777777778)],[1],[0],[0],[1.7047870999958832],['Target'],TWO,001,2025-10-03_08h34.50.824,Visual Search Experiment,,2025.1.1,60.06893510949264,2025-10-03 08h35.06.598694 +0530,
115,0,115,[np.float64(0.38055555555555554)],[np.float64(-0.2847222222222222)],[1],[0],[0],[1.6302660000001197],['Target'],115,0,115,0,195.5779932000005,,10,195.56607929999882,195.5779932000005,195.5779932000005,0.018904099997598678,197.19648150000285,[np.float64(0.38055555555555554)],[np.float64(-0.2847222222222222)],[1],[0],[0],[1.6302660000001197],['Target'],TWO,001,2025-10-03_08h34.50.824,Visual Search Experiment,,2025.1.1,60.06893510949264,2025-10-03 08h35.06.598694 +0530,
116,0,116,[np.float64(0.013888888888888888)],[np.float64(-0.29444444444444445)],[1],[0],[0],[1.5092471000025398],['Target'],116,0,116,0,197.22776509999676,,5,197.20485519999784,197.22776509999676,197.22776509999676,0.0082717000041157,198.7142404999977,[np.float64(0.013888888888888888)],[np.float64(-0.29444444444444445)],[1],[0],[0],[1.5092471000025398],['Target'],TWO,001,2025-10-03_08h34.50.824,Visual Search Experiment,,2025.1.1,60.06893510949264,2025-10-03 08h35.06.598694 +0530,
117,0,117,[np.float64(0.3597222222222222)],[np.float64(-0.3333333333333333)],[1],[0],[0],[1.7430141000004369],['Target'],117,0,117,0,198.76193819999753,,10,198.73703070000192,198.76193819999753,198.76193819999753,0.022702900001604576,200.48025710000366,[np.float64(0.3597222222222222)],[np.float64(-0.3333333333333333)],[1],[0],[0],[1.7430141000004369],['Target'],TWO,001,2025-10-03_08h34.50.824,Visual Search Experiment,,2025.1.1,60.06893510949264,2025-10-03 08h35.06.598694 +0530,
118,0,118,[np.float64(-0.45555555555555555)],[np.float64(0.39305555555555555)],[1],[0],[0],[1.747594600004959],['Target'],118,0,118,0,200.51058449999982,,10,200.5002284000002,200.51058449999982,200.51058449999982,0.019749400002183393,202.24799679999705,[np.float64(-0.45555555555555555)],[np.float64(0.39305555555555555)],[1],[0],[0],[1.747594600004959],['Target'],TWO,001,2025-10-03_08h34.50.824,Visual Search Experiment,,2025.1.1,60.06893510949264,2025-10-03 08h35.06.598694 +0530,
119,0,119,[np.float64(-0.23055555555555557)],[np.float64(-0.32916666666666666)],[1],[0],[0],[1.6003210000053514],['Target'],119,0,119,0,202.27749590000167,,5,202.2626814000032,202.27749590000167,202.27749590000167,0.014553100001649,203.8631772000008,[np.float64(-0.23055555555555557)],[np.float64(-0.32916666666666666)],[1],[0],[0],[1.6003210000053514],['Target'],TWO,001,2025-10-03_08h34.50.824,Visual Search Experiment,,2025.1.1,60.06893510949264,2025-10-03 08h35.06.598694 +0530,
120,0,120,[np.float64(-0.25277777777777777)],[np.float64(-0.2361111111111111)],[1],[0],[0],[1.472027399999206],['Target'],120,0,120,0,203.89392580000276,,5,203.87555550000252,203.89392580000276,203.89392580000276,0.012274900000193156,205.34780460000184,[np.float64(-0.25277777777777777)],[np.float64(-0.2361111111111111)],[1],[0],[0],[1.472027399999206],['Target'],TWO,001,2025-10-03_08h34.50.824,Visual Search Experiment,,2025.1.1,60.06893510949264,2025-10-03 08h35.06.598694 +0530,
121,0,121,[np.float64(-0.1763888888888889)],[np.float64(-0.3611111111111111)],[1],[0],[0],[1.4936072000054992],['Target'],121,0,121,0,205.4132959999988,,10,205.3853117000035,205.4132959999988,205.4132959999988,0.03730350000114413,206.8791063000026,[np.float64(-0.1763888888888889)],[np.float64(-0.3611111111111111)],[1],[0],[0],[1.4936072000054992],['Target'],TWO,001,2025-10-03_08h34.50.824,Visual Search Experiment,,2025.1.1,60.06893510949264,2025-10-03 08h35.06.598694 +0530,
122,0,122,[np.float64(0.059722222222222225)],[np.float64(0.30694444444444446)],[1],[0],[0],[1.6742130999991787],['Target'],122,0,122,0,206.91007269999682,,5,206.88871199999994,206.91007269999682,206.91007269999682,0.00950159999774769,208.56308900000295,[np.float64(0.059722222222222225)],[np.float64(0.30694444444444446)],[1],[0],[0],[1.6742130999991787],['Target'],TWO,001,2025-10-03_08h34.50.824,Visual Search Experiment,,2025.1.1,60.06893510949264,2025-10-03 08h35.06.598694 +0530,
123,0,123,[np.float64(0.20277777777777778)],[np.float64(0.011111111111111112)],[1],[0],[0],[1.348927700004424],['Target'],123,0,123,0,208.59321289999934,,10,208.58166930000152,208.59321289999934,208.59321289999934,0.0184097000019392,209.9307606000002,[np.float64(0.20277777777777778)],[np.float64(0.011111111111111112)],[1],[0],[0],[1.348927700004424],['Target'],TWO,001,2025-10-03_08h34.50.824,Visual Search Experiment,,2025.1.1,60.06893510949264,2025-10-03 08h35.06.598694 +0530,
124,0,124,"[np.float64(-0.4444444444444444), np.float64(-0.4736111111111111)]","[np.float64(-0.35), np.float64(-0.3819444444444444)]","[1, 1]","[0, 0]","[0, 0]","[1.5221489999967162, 2.255016799994337]","[None, 'Target']",124,0,124,0,209.97993750000023,,10,209.95713840000099,209.97993750000023,209.97993750000023,0.02627980000397656,212.21230579999974,"[np.float64(-0.4444444444444444), np.float64(-0.4736111111111111)]","[np.float64(-0.35), np.float64(-0.3819444444444444)]","[1, 1]","[0, 0]","[0, 0]","[1.5221489999967162, 2.255016799994337]","[None, 'Target']",TWO,001,2025-10-03_08h34.50.824,Visual Search Experiment,,2025.1.1,60.06893510949264,2025-10-03 08h35.06.598694 +0530,
125,0,125,"[np.float64(-0.05416666666666667), np.float64(-0.0375)]","[np.float64(0.2263888888888889), np.float64(0.21944444444444444)]","[1, 1]","[0, 0]","[0, 0]","[1.55827319999662, 2.8405252000011387]","[None, 'Target']",125,0,125,0,212.2432628000024,,5,212.22122189999936,212.2432628000024,212.2432628000024,0.008799100003670901,215.06188159999874,"[np.float64(-0.05416666666666667), np.float64(-0.0375)]","[np.float64(0.2263888888888889), np.float64(0.21944444444444444)]","[1, 1]","[0, 0]","[0, 0]","[1.55827319999662, 2.8405252000011387]","[None, 'Target']",TWO,001,2025-10-03_08h34.50.824,Visual Search Experiment,,2025.1.1,60.06893510949264,2025-10-03 08h35.06.598694 +0530,
126,0,126,[np.float64(0.2222222222222222)],[np.float64(0.3333333333333333)],[1],[0],[0],[1.7078922000000603],['Target'],126,0,126,0,215.1116802999968,,10,215.08814970000094,215.1116802999968,215.1116802999968,0.026165399998717476,216.7962262000001,[np.float64(0.2222222222222222)],[np.float64(0.3333333333333333)],[1],[0],[0],[1.7078922000000603],['Target'],TWO,001,2025-10-03_08h34.50.824,Visual Search Experiment,,2025.1.1,60.06893510949264,2025-10-03 08h35.06.598694 +0530,
127,0,127,[np.float64(-0.1638888888888889)],[np.float64(0.44027777777777777)],[1],[0],[0],[2.0892768999983673],['Target'],127,0,127,0,216.84379600000102,,10,216.82272340000054,216.84379600000102,216.84379600000102,0.026390099999844097,218.91214690000197,[np.float64(-0.1638888888888889)],[np.float64(0.44027777777777777)],[1],[0],[0],[2.0892768999983673],['Target'],TWO,001,2025-10-03_08h34.50.824,Visual Search Experiment,,2025.1.1,60.06893510949264,2025-10-03 08h35.06.598694 +0530,
128,0,128,[np.float64(0.29305555555555557)],[np.float64(0.1875)],[1],[0],[0],[1.3404489000022295],['Target'],128,0,128,0,218.9425906999968,,5,218.9207400000014,218.9425906999968,218.9425906999968,0.008491400003549643,220.26131400000304,[np.float64(0.29305555555555557)],[np.float64(0.1875)],[1],[0],[0],[1.3404489000022295],['Target'],TWO,001,2025-10-03_08h34.50.824,Visual Search Experiment,,2025.1.1,60.06893510949264,2025-10-03 08h35.06.598694 +0530,
129,0,129,[np.float64(0.3416666666666667)],[np.float64(-0.09583333333333334)],[1],[0],[0],[1.5649687999975868],['Target'],129,0,129,0,220.2924181999988,,10,220.27953739999793,220.2924181999988,220.2924181999988,0.018146900001738686,221.84465569999884,[np.float64(0.3416666666666667)],[np.float64(-0.09583333333333334)],[1],[0],[0],[1.5649687999975868],['Target'],TWO,001,2025-10-03_08h34.50.824,Visual Search Experiment,,2025.1.1,60.06893510949264,2025-10-03 08h35.06.598694 +0530,
130,0,130,[np.float64(-0.2)],[np.float64(0.3875)],[1],[0],[0],[1.8768401999986963],['Target'],130,0,130,0,221.89332399999694,,10,221.86746629999834,221.89332399999694,221.89332399999694,0.022693300001265015,223.74446380000154,[np.float64(-0.2)],[np.float64(0.3875)],[1],[0],[0],[1.8768401999986963],['Target'],TWO,001,2025-10-03_08h34.50.824,Visual Search Experiment,,2025.1.1,60.06893510949264,2025-10-03 08h35.06.598694 +0530,
131,0,131,[np.float64(-0.4791666666666667)],[np.float64(-0.2222222222222222)],[1],[0],[0],[1.574219100002665],['Target'],131,0,131,0,223.77817160000268,,5,223.75414450000244,223.77817160000268,223.77817160000268,0.009579400000802707,225.32850699999835,[np.float64(-0.4791666666666667)],[np.float64(-0.2222222222222222)],[1],[0],[0],[1.574219100002665],['Target'],TWO,001,2025-10-03_08h34.50.824,Visual Search Experiment,,2025.1.1,60.06893510949264,2025-10-03 08h35.06.598694 +0530,
132,0,132,[np.float64(0.4736111111111111)],[np.float64(0.12777777777777777)],[1],[0],[0],[1.623373400005221],['Target'],132,0,132,0,225.35909640000318,,5,225.33840839999903,225.35909640000318,225.35909640000318,0.009832299998379312,226.96201360000123,[np.float64(0.4736111111111111)],[np.float64(0.12777777777777777)],[1],[0],[0],[1.623373400005221],['Target'],TWO,001,2025-10-03_08h34.50.824,Visual Search Experiment,,2025.1.1,60.06893510949264,2025-10-03 08h35.06.598694 +0530,
133,0,133,"[np.float64(-0.2833333333333333), np.float64(-0.28194444444444444)]","[np.float64(-0.4361111111111111), np.float64(-0.44027777777777777)]","[1, 1]","[0, 0]","[0, 0]","[1.6297057000047062, 2.4132862000042223]","[None, 'Target']",133,0,133,0,227.0104141999982,,5,226.98191159999988,227.0104141999982,227.0104141999982,0.019717099996341858,229.3954276000004,"[np.float64(-0.2833333333333333), np.float64(-0.28194444444444444)]","[np.float64(-0.4361111111111111), np.float64(-0.44027777777777777)]","[1, 1]","[0, 0]","[0, 0]","[1.6297057000047062, 2.4132862000042223]","[None, 'Target']",TWO,001,2025-10-03_08h34.50.824,Visual Search Experiment,,2025.1.1,60.06893510949264,2025-10-03 08h35.06.598694 +0530,
134,0,134,[np.float64(0.14722222222222223)],[np.float64(-0.36944444444444446)],[1],[0],[0],[1.3181532999951742],['Target'],134,0,134,0,229.42519809999794,,5,229.40861669999867,229.42519809999794,229.42519809999794,0.013019600002735388,230.7269060000035,[np.float64(0.14722222222222223)],[np.float64(-0.36944444444444446)],[1],[0],[0],[1.3181532999951742],['Target'],TWO,001,2025-10-03_08h34.50.824,Visual Search Experiment,,2025.1.1,60.06893510949264,2025-10-03 08h35.06.598694 +0530,
135,0,135,[np.float64(-0.10972222222222222)],[np.float64(0.0375)],[1],[0],[0],[1.761508399999002],['Target'],135,0,135,0,230.77561140000034,,10,230.74844670000311,230.77561140000034,230.77561140000034,0.021463700002641417,232.51011770000332,[np.float64(-0.10972222222222222)],[np.float64(0.0375)],[1],[0],[0],[1.761508399999002],['Target'],TWO,001,2025-10-03_08h34.50.824,Visual Search Experiment,,2025.1.1,60.06893510949264,2025-10-03 08h35.06.598694 +0530,
136,0,136,[np.float64(-0.17083333333333334)],[np.float64(0.38333333333333336)],[1],[0],[0],[1.7091434000030858],['Target'],136,0,136,0,232.5589775999979,,10,232.53419150000263,232.5589775999979,232.5589775999979,0.0239679999940563,234.24348309999914,[np.float64(-0.17083333333333334)],[np.float64(0.38333333333333336)],[1],[0],[0],[1.7091434000030858],['Target'],TWO,001,2025-10-03_08h34.50.824,Visual Search Experiment,,2025.1.1,60.06893510949264,2025-10-03 08h35.06.598694 +0530,
137,0,137,[np.float64(-0.12916666666666668)],[np.float64(-0.13194444444444445)],[1],[0],[0],[1.5583989000006113],['Target'],137,0,137,0,234.27454739999666,,5,234.25207349999982,234.27454739999666,234.27454739999666,0.00849490000109654,235.81065220000164,[np.float64(-0.12916666666666668)],[np.float64(-0.13194444444444445)],[1],[0],[0],[1.5583989000006113],['Target'],TWO,001,2025-10-03_08h34.50.824,Visual Search Experiment,,2025.1.1,60.06893510949264,2025-10-03 08h35.06.598694 +0530,
138,0,138,[np.float64(-0.16805555555555557)],[np.float64(0.4152777777777778)],[1],[0],[0],[1.7096005999992485],['Target'],138,0,138,0,235.86222740000085,,10,235.8336208000037,235.86222740000085,235.86222740000085,0.022890399995958433,237.54337810000288,[np.float64(-0.16805555555555557)],[np.float64(0.4152777777777778)],[1],[0],[0],[1.7096005999992485],['Target'],TWO,001,2025-10-03_08h34.50.824,Visual Search Experiment,,2025.1.1,60.06893510949264,2025-10-03 08h35.06.598694 +0530,
139,0,139,[np.float64(0.022222222222222223)],[np.float64(-0.20833333333333334)],[1],[0],[0],[1.9704995000065537],['Target'],139,0,139,0,237.57398419999663,,5,237.55623229999765,237.57398419999663,237.57398419999663,0.012724599997454789,239.5268784,[np.float64(0.022222222222222223)],[np.float64(-0.20833333333333334)],[1],[0],[0],[1.9704995000065537],['Target'],TWO,001,2025-10-03_08h34.50.824,Visual Search Experiment,,2025.1.1,60.06893510949264,2025-10-03 08h35.06.598694 +0530,
140,0,140,[np.float64(0.3055555555555556)],[np.float64(0.41388888888888886)],[1],[0],[0],[1.4135709999973187],['Target'],140,0,140,0,239.55708279999817,,10,239.54544010000245,239.55708279999817,239.55708279999817,0.01847759999509435,240.95913969999674,[np.float64(0.3055555555555556)],[np.float64(0.41388888888888886)],[1],[0],[0],[1.4135709999973187],['Target'],TWO,001,2025-10-03_08h34.50.824,Visual Search Experiment,,2025.1.1,60.06893510949264,2025-10-03 08h35.06.598694 +0530,
141,0,141,[np.float64(0.12222222222222222)],[np.float64(0.4666666666666667)],[1],[0],[0],[1.4112718000033055],['Target'],141,0,141,0,240.99023149999994,,5,240.96748610000213,240.99023149999994,240.99023149999994,0.008238600006734487,242.3789192999975,[np.float64(0.12222222222222222)],[np.float64(0.4666666666666667)],[1],[0],[0],[1.4112718000033055],['Target'],TWO,001,2025-10-03_08h34.50.824,Visual Search Experiment,,2025.1.1,60.06893510949264,2025-10-03 08h35.06.598694 +0530,
142,0,142,"[np.float64(-0.4888888888888889), np.float64(-0.4888888888888889)]","[np.float64(0.24027777777777778), np.float64(0.2361111111111111)]","[1, 1]","[0, 0]","[0, 0]","[1.303978999996616, 2.086414400000649]","[None, 'Target']",142,0,142,0,242.40691920000245,,5,242.38878799999657,242.40691920000245,242.40691920000245,0.009778400002687704,244.47532990000036,"[np.float64(-0.4888888888888889), np.float64(-0.4888888888888889)]","[np.float64(0.24027777777777778), np.float64(0.2361111111111111)]","[1, 1]","[0, 0]","[0, 0]","[1.303978999996616, 2.086414400000649]","[None, 'Target']",TWO,001,2025-10-03_08h34.50.824,Visual Search Experiment,,2025.1.1,60.06893510949264,2025-10-03 08h35.06.598694 +0530,
143,0,143,[np.float64(0.43472222222222223)],[np.float64(0.44583333333333336)],[1],[0],[0],[1.6826494999986608],['Target'],143,0,143,0,244.506615600003,,10,244.49282259999745,244.506615600003,244.506615600003,0.017397399999026675,246.17562010000256,[np.float64(0.43472222222222223)],[np.float64(0.44583333333333336)],[1],[0],[0],[1.6826494999986608],['Target'],TWO,001,2025-10-03_08h34.50.824,Visual Search Experiment,,2025.1.1,60.06893510949264,2025-10-03 08h35.06.598694 +0530,
144,0,144,[np.float64(0.4513888888888889)],[np.float64(-0.23333333333333334)],[1],[0],[0],[2.0901252000039676],['Target'],144,0,144,0,246.20669140000246,,5,246.1874244999999,246.20669140000246,246.20669140000246,0.01169129999470897,248.27772800000093,[np.float64(0.4513888888888889)],[np.float64(-0.23333333333333334)],[1],[0],[0],[2.0901252000039676],['Target'],TWO,001,2025-10-03_08h34.50.824,Visual Search Experiment,,2025.1.1,60.06893510949264,2025-10-03 08h35.06.598694 +0530,
145,0,145,[np.float64(-0.19027777777777777)],[np.float64(0.40694444444444444)],[1],[0],[0],[1.937757600004261],['Target'],145,0,145,0,248.30675889999839,,5,248.2894238000008,248.30675889999839,248.30675889999839,0.011624099999608006,250.2273978000012,[np.float64(-0.19027777777777777)],[np.float64(0.40694444444444444)],[1],[0],[0],[1.937757600004261],['Target'],TWO,001,2025-10-03_08h34.50.824,Visual Search Experiment,,2025.1.1,60.06893510949264,2025-10-03 08h35.06.598694 +0530,
146,0,146,"[np.float64(-0.3236111111111111), np.float64(-0.30694444444444446)]","[np.float64(0.36944444444444446), np.float64(0.38055555555555554)]","[1, 1]","[0, 0]","[0, 0]","[1.139806099999987, 2.168096199995489]","[None, 'Target']",146,0,146,0,250.25593949999893,,5,250.23971219999657,250.25593949999893,250.25593949999893,0.012186400002974551,252.4079625000013,"[np.float64(-0.3236111111111111), np.float64(-0.30694444444444446)]","[np.float64(0.36944444444444446), np.float64(0.38055555555555554)]","[1, 1]","[0, 0]","[0, 0]","[1.139806099999987, 2.168096199995489]","[None, 'Target']",TWO,001,2025-10-03_08h34.50.824,Visual Search Experiment,,2025.1.1,60.06893510949264,2025-10-03 08h35.06.598694 +0530,
147,0,147,[np.float64(0.2361111111111111)],[np.float64(-0.13055555555555556)],[1],[0],[0],[1.6292609000010998],['Target'],147,0,147,0,252.43932179999683,,10,252.42824429999746,252.43932179999683,252.43932179999683,0.02017139999952633,254.05765930000052,[np.float64(0.2361111111111111)],[np.float64(-0.13055555555555556)],[1],[0],[0],[1.6292609000010998],['Target'],TWO,001,2025-10-03_08h34.50.824,Visual Search Experiment,,2025.1.1,60.06893510949264,2025-10-03 08h35.06.598694 +0530,
148,0,148,[np.float64(-0.2916666666666667)],[np.float64(0.4083333333333333)],[1],[0],[0],[1.4247701999993296],['Target'],148,0,148,0,254.08903180000198,,5,254.067435500001,254.08903180000198,254.08903180000198,0.009676300003775395,255.49236599999858,[np.float64(-0.2916666666666667)],[np.float64(0.4083333333333333)],[1],[0],[0],[1.4247701999993296],['Target'],TWO,001,2025-10-03_08h34.50.824,Visual Search Experiment,,2025.1.1,60.06893510949264,2025-10-03 08h35.06.598694 +0530,
149,0,149,"[np.float64(0.24583333333333332), np.float64(0.2513888888888889)]","[np.float64(0.18611111111111112), np.float64(0.20833333333333334)]","[1, 1]","[0, 0]","[0, 0]","[1.4502291999961017, 2.2173802999968757]","[None, 'Target']",149,0,149,0,255.52247329999955,,5,255.50730620000104,255.52247329999955,255.52247329999955,0.014845300000160933,257.7248741000003,"[np.float64(0.24583333333333332), np.float64(0.2513888888888889)]","[np.float64(0.18611111111111112), np.float64(0.20833333333333334)]","[1, 1]","[0, 0]","[0, 0]","[1.4502291999961017, 2.2173802999968757]","[None, 'Target']",TWO,001,2025-10-03_08h34.50.824,Visual Search Experiment,,2025.1.1,60.06893510949264,2025-10-03 08h35.06.598694 +0530,
150,0,150,[np.float64(-0.32222222222222224)],[np.float64(0.4444444444444444)],[1],[0],[0],[1.300868199999968],['Target'],150,0,150,0,257.75558119999914,,5,257.73973809999734,257.75558119999914,257.75558119999914,0.014723100000992417,259.0407894000018,[np.float64(-0.32222222222222224)],[np.float64(0.4444444444444444)],[1],[0],[0],[1.300868199999968],['Target'],TWO,001,2025-10-03_08h34.50.824,Visual Search Experiment,,2025.1.1,60.06893510949264,2025-10-03 08h35.06.598694 +0530,
151,0,151,[np.float64(-0.43194444444444446)],[np.float64(-0.4486111111111111)],[1],[0],[0],[1.772084199998062],['Target'],151,0,151,0,259.07230900000286,,5,259.05946699999913,259.07230900000286,259.07230900000286,0.018515700001444202,260.83186849999765,[np.float64(-0.43194444444444446)],[np.float64(-0.4486111111111111)],[1],[0],[0],[1.772084199998062],['Target'],TWO,001,2025-10-03_08h34.50.824,Visual Search Experiment,,2025.1.1,60.06893510949264,2025-10-03 08h35.06.598694 +0530,
152,0,152,[np.float64(-0.12222222222222222)],[np.float64(-0.11666666666666667)],[1],[0],[0],[1.6499251999994158],['Target'],152,0,152,0,260.8718585000024,,10,260.8575525999986,260.8718585000024,260.8718585000024,0.02547269999922719,262.5076401999977,[np.float64(-0.12222222222222222)],[np.float64(-0.11666666666666667)],[1],[0],[0],[1.6499251999994158],['Target'],TWO,001,2025-10-03_08h34.50.824,Visual Search Experiment,,2025.1.1,60.06893510949264,2025-10-03 08h35.06.598694 +0530,
153,0,153,[np.float64(-0.3194444444444444)],[np.float64(0.3958333333333333)],[1],[0],[0],[1.5976087999952142],['Target'],153,0,153,0,262.53791009999986,,10,262.5256124000007,262.53791009999986,262.53791009999986,0.01785359999485081,264.12335639999947,[np.float64(-0.3194444444444444)],[np.float64(0.3958333333333333)],[1],[0],[0],[1.5976087999952142],['Target'],TWO,001,2025-10-03_08h34.50.824,Visual Search Experiment,,2025.1.1,60.06893510949264,2025-10-03 08h35.06.598694 +0530,
154,0,154,[np.float64(-0.006944444444444444)],[np.float64(0.02361111111111111)],[1],[0],[0],[2.647929799997655],['Target'],154,0,154,0,264.1547559000028,,10,264.1421843999997,264.1547559000028,264.1547559000028,0.01872689999436261,266.7902727999972,[np.float64(-0.006944444444444444)],[np.float64(0.02361111111111111)],[1],[0],[0],[2.647929799997655],['Target'],TWO,001,2025-10-03_08h34.50.824,Visual Search Experiment,,2025.1.1,60.06893510949264,2025-10-03 08h35.06.598694 +0530,
155,0,155,[np.float64(0.4652777777777778)],[np.float64(-0.3861111111111111)],[1],[0],[0],[1.8908568999977433],['Target'],155,0,155,0,266.82113219999883,,5,266.7993187000029,266.82113219999883,266.82113219999883,0.008813400003418792,268.6903039000026,[np.float64(0.4652777777777778)],[np.float64(-0.3861111111111111)],[1],[0],[0],[1.8908568999977433],['Target'],TWO,001,2025-10-03_08h34.50.824,Visual Search Experiment,,2025.1.1,60.06893510949264,2025-10-03 08h35.06.598694 +0530,
156,0,156,[np.float64(-0.30972222222222223)],[np.float64(0.14722222222222223)],[1],[0],[0],[1.508416100004979],['Target'],156,0,156,0,268.72061940000276,,5,268.6984758000035,268.72061940000276,268.72061940000276,0.008093799995549489,270.20702690000326,[np.float64(-0.30972222222222223)],[np.float64(0.14722222222222223)],[1],[0],[0],[1.508416100004979],['Target'],TWO,001,2025-10-03_08h34.50.824,Visual Search Experiment,,2025.1.1,60.06893510949264,2025-10-03 08h35.06.598694 +0530,
157,0,157,[np.float64(-0.45694444444444443)],[np.float64(-0.475)],[1],[0],[0],[3.2819888000012725],['Target'],157,0,157,0,270.2374570000029,,10,270.22426429999905,270.2374570000029,270.2374570000029,0.01715400000102818,273.50639290000254,[np.float64(-0.45694444444444443)],[np.float64(-0.475)],[1],[0],[0],[3.2819888000012725],['Target'],TWO,001,2025-10-03_08h34.50.824,Visual Search Experiment,,2025.1.1,60.06893510949264,2025-10-03 08h35.06.598694 +0530,
158,0,158,[np.float64(0.325)],[np.float64(0.2861111111111111)],[1],[0],[0],[1.5969379000016488],['Target'],158,0,158,0,273.55484779999824,,10,273.5285608999984,273.55484779999824,273.55484779999824,0.02205870000034338,275.1257323000027,[np.float64(0.325)],[np.float64(0.2861111111111111)],[1],[0],[0],[1.5969379000016488],['Target'],TWO,001,2025-10-03_08h34.50.824,Visual Search Experiment,,2025.1.1,60.06893510949264,2025-10-03 08h35.06.598694 +0530,
159,0,159,"[np.float64(0.16944444444444445), np.float64(0.16944444444444445), np.float64(0.16944444444444445), np.float64(0.15694444444444444)]","[np.float64(0.058333333333333334), np.float64(0.058333333333333334), np.float64(0.058333333333333334), np.float64(0.04583333333333333)]","[1, 1, 1, 1]","[0, 0, 0, 0]","[0, 0, 0, 0]","[1.4352012000017567, 2.1017611999996006, 2.4339638000019477, 3.1008365000016056]","[None, None, None, 'Target']",159,0,159,0,275.18862570000056,,10,275.1711721000029,275.18862570000056,275.18862570000056,0.04524010000022827,278.2722126000008,"[np.float64(0.16944444444444445), np.float64(0.16944444444444445), np.float64(0.16944444444444445), np.float64(0.15694444444444444)]","[np.float64(0.058333333333333334), np.float64(0.058333333333333334), np.float64(0.058333333333333334), np.float64(0.04583333333333333)]","[1, 1, 1, 1]","[0, 0, 0, 0]","[0, 0, 0, 0]","[1.4352012000017567, 2.1017611999996006, 2.4339638000019477, 3.1008365000016056]","[None, None, None, 'Target']",TWO,001,2025-10-03_08h34.50.824,Visual Search Experiment,,2025.1.1,60.06893510949264,2025-10-03 08h35.06.598694 +0530,
160,0,160,[np.float64(-0.12222222222222222)],[np.float64(0.4888888888888889)],[1],[0],[0],[1.5257032000008621],['Target'],160,0,160,0,278.3034871999989,,5,278.28088269999716,278.3034871999989,278.3034871999989,0.008530599996447563,279.80672429999686,[np.float64(-0.12222222222222222)],[np.float64(0.4888888888888889)],[1],[0],[0],[1.5257032000008621],['Target'],TWO,001,2025-10-03_08h34.50.824,Visual Search Experiment,,2025.1.1,60.06893510949264,2025-10-03 08h35.06.598694 +0530,
161,0,161,[np.float64(0.44027777777777777)],[np.float64(0.30277777777777776)],[1],[0],[0],[1.2891579999995884],['Target'],161,0,161,0,279.8366102,,5,279.8166917999988,279.8366102,279.8366102,0.009878800003207289,281.1060241000014,[np.float64(0.44027777777777777)],[np.float64(0.30277777777777776)],[1],[0],[0],[1.2891579999995884],['Target'],TWO,001,2025-10-03_08h34.50.824,Visual Search Experiment,,2025.1.1,60.06893510949264,2025-10-03 08h35.06.598694 +0530,
162,0,162,[np.float64(0.14583333333333334)],[np.float64(-0.22361111111111112)],[1],[0],[0],[1.9378675000043586],['Target'],162,0,162,0,281.1364437000011,,5,281.11744349999935,281.1364437000011,281.1364437000011,0.01135499999509193,283.0554959000001,[np.float64(0.14583333333333334)],[np.float64(-0.22361111111111112)],[1],[0],[0],[1.9378675000043586],['Target'],TWO,001,2025-10-03_08h34.50.824,Visual Search Experiment,,2025.1.1,60.06893510949264,2025-10-03 08h35.06.598694 +0530,
163,0,163,[np.float64(-0.35555555555555557)],[np.float64(0.10277777777777777)],[1],[0],[0],[1.3654793000023346],['Target'],163,0,163,0,283.08614240000315,,10,283.07296230000065,283.08614240000315,283.08614240000315,0.017390499997418374,284.4385739999998,[np.float64(-0.35555555555555557)],[np.float64(0.10277777777777777)],[1],[0],[0],[1.3654793000023346],['Target'],TWO,001,2025-10-03_08h34.50.824,Visual Search Experiment,,2025.1.1,60.06893510949264,2025-10-03 08h35.06.598694 +0530,
164,0,164,[np.float64(-0.09166666666666666)],[np.float64(0.07222222222222222)],[1],[0],[0],[1.391199300000153],['Target'],164,0,164,0,284.46903049999673,,5,284.44706929999666,284.46903049999673,284.46903049999673,0.008392199997615535,285.8384090000036,[np.float64(-0.09166666666666666)],[np.float64(0.07222222222222222)],[1],[0],[0],[1.391199300000153],['Target'],TWO,001,2025-10-03_08h34.50.824,Visual Search Experiment,,2025.1.1,60.06893510949264,2025-10-03 08h35.06.598694 +0530,
165,0,165,[np.float64(0.18472222222222223)],[np.float64(0.11666666666666667)],[1],[0],[0],[1.2500165000019479],['Target'],165,0,165,0,285.8693041000006,,10,285.8550946000032,285.8693041000006,285.8693041000006,0.01660730000003241,287.10524599999917,[np.float64(0.18472222222222223)],[np.float64(0.11666666666666667)],[1],[0],[0],[1.2500165000019479],['Target'],TWO,001,2025-10-03_08h34.50.824,Visual Search Experiment,,2025.1.1,60.06893510949264,2025-10-03 08h35.06.598694 +0530,
166,0,166,[np.float64(0.17777777777777778)],[np.float64(0.07222222222222222)],[1],[0],[0],[1.0390131000021938],['Target'],166,0,166,0,287.13597960000334,,5,287.11604510000325,287.13597960000334,287.13597960000334,0.010685999994166195,288.15520560000004,[np.float64(0.17777777777777778)],[np.float64(0.07222222222222222)],[1],[0],[0],[1.0390131000021938],['Target'],TWO,001,2025-10-03_08h34.50.824,Visual Search Experiment,,2025.1.1,60.06893510949264,2025-10-03 08h35.06.598694 +0530,
167,0,167,[np.float64(0.019444444444444445)],[np.float64(-0.25)],[1],[0],[0],[1.2795495000027586],['Target'],167,0,167,0,288.2034949000008,,10,288.17537009999796,288.2034949000008,288.2034949000008,0.020067800003744196,289.45506970000133,[np.float64(0.019444444444444445)],[np.float64(-0.25)],[1],[0],[0],[1.2795495000027586],['Target'],TWO,001,2025-10-03_08h34.50.824,Visual Search Experiment,,2025.1.1,60.06893510949264,2025-10-03 08h35.06.598694 +0530,
168,0,168,[np.float64(-0.4111111111111111)],[np.float64(0.3277777777777778)],[1],[0],[0],[1.836466400003701],['Target'],168,0,168,0,289.4857075000036,,5,289.46799279999686,289.4857075000036,289.4857075000036,0.012811300002795178,291.3046048999968,[np.float64(-0.4111111111111111)],[np.float64(0.3277777777777778)],[1],[0],[0],[1.836466400003701],['Target'],TWO,001,2025-10-03_08h34.50.824,Visual Search Experiment,,2025.1.1,60.06893510949264,2025-10-03 08h35.06.598694 +0530,
169,0,169,[np.float64(0.3138888888888889)],[np.float64(0.2972222222222222)],[1],[0],[0],[1.2415136999989045],['Target'],169,0,169,0,291.3354843999987,,5,291.3131302999973,291.3354843999987,291.3354843999987,0.008447900007013232,292.5547817999977,[np.float64(0.3138888888888889)],[np.float64(0.2972222222222222)],[1],[0],[0],[1.2415136999989045],['Target'],TWO,001,2025-10-03_08h34.50.824,Visual Search Experiment,,2025.1.1,60.06893510949264,2025-10-03 08h35.06.598694 +0530,
170,0,170,[np.float64(-0.36666666666666664)],[np.float64(0.1986111111111111)],[1],[0],[0],[1.2088162000000011],['Target'],170,0,170,0,292.603182699997,,10,292.57809960000304,292.603182699997,292.603182699997,0.023230099999636877,293.78707959999883,[np.float64(-0.36666666666666664)],[np.float64(0.1986111111111111)],[1],[0],[0],[1.2088162000000011],['Target'],TWO,001,2025-10-03_08h34.50.824,Visual Search Experiment,,2025.1.1,60.06893510949264,2025-10-03 08h35.06.598694 +0530,
171,0,171,[np.float64(0.225)],[np.float64(0.05277777777777778)],[1],[0],[0],[1.371565699999337],['Target'],171,0,171,0,293.8194270000022,,5,293.7991301000002,293.8194270000022,293.8194270000022,0.011961500000325032,295.1709327999997,[np.float64(0.225)],[np.float64(0.05277777777777778)],[1],[0],[0],[1.371565699999337],['Target'],TWO,001,2025-10-03_08h34.50.824,Visual Search Experiment,,2025.1.1,60.06893510949264,2025-10-03 08h35.06.598694 +0530,
172,0,172,"[np.float64(-0.38055555555555554), np.float64(-0.3902777777777778)]","[np.float64(0.3388888888888889), np.float64(0.3194444444444444)]","[1, 1]","[0, 0]","[0, 0]","[1.5155347999971127, 2.3837789999961387]","[None, 'Target']",172,0,172,0,295.2365471000012,,10,295.20439030000125,295.2365471000012,295.2365471000012,0.03333500000007916,297.58840000000055,"[np.float64(-0.38055555555555554), np.float64(-0.3902777777777778)]","[np.float64(0.3388888888888889), np.float64(0.3194444444444444)]","[1, 1]","[0, 0]","[0, 0]","[1.5155347999971127, 2.3837789999961387]","[None, 'Target']",TWO,001,2025-10-03_08h34.50.824,Visual Search Experiment,,2025.1.1,60.06893510949264,2025-10-03 08h35.06.598694 +0530,
173,0,173,"[np.float64(0.24444444444444444), np.float64(0.23055555555555557)]","[np.float64(-0.1986111111111111), np.float64(-0.2222222222222222)]","[1, 1]","[0, 0]","[0, 0]","[1.819971999997506, 2.7191745999953127]","[None, 'Target']",173,0,173,0,297.6198560999983,,5,297.600875600001,297.6198560999983,297.6198560999983,0.01232029999664519,300.32019749999745,"[np.float64(0.24444444444444444), np.float64(0.23055555555555557)]","[np.float64(-0.1986111111111111), np.float64(-0.2222222222222222)]","[1, 1]","[0, 0]","[0, 0]","[1.819971999997506, 2.7191745999953127]","[None, 'Target']",TWO,001,2025-10-03_08h34.50.824,Visual Search Experiment,,2025.1.1,60.06893510949264,2025-10-03 08h35.06.598694 +0530,
174,0,174,[np.float64(-0.2388888888888889)],[np.float64(0.05138888888888889)],[1],[0],[0],[1.4931844999955501],['Target'],174,0,174,0,300.3685151000027,,10,300.3433653000029,300.3685151000027,300.3685151000027,0.02305970000452362,301.8367268000002,[np.float64(-0.2388888888888889)],[np.float64(0.05138888888888889)],[1],[0],[0],[1.4931844999955501],['Target'],TWO,001,2025-10-03_08h34.50.824,Visual Search Experiment,,2025.1.1,60.06893510949264,2025-10-03 08h35.06.598694 +0530,
175,0,175,[np.float64(0.2972222222222222)],[np.float64(-0.2875)],[1],[0],[0],[1.5414002000034088],['Target'],175,0,175,0,301.86738389999664,,5,301.8460363999984,301.86738389999664,301.86738389999664,0.009085600002435967,303.38756499999727,[np.float64(0.2972222222222222)],[np.float64(-0.2875)],[1],[0],[0],[1.5414002000034088],['Target'],TWO,001,2025-10-03_08h34.50.824,Visual Search Experiment,,2025.1.1,60.06893510949264,2025-10-03 08h35.06.598694 +0530,
176,0,176,[np.float64(-0.3402777777777778)],[np.float64(-0.1486111111111111)],[1],[0],[0],[1.6083491000026697],['Target'],176,0,176,0,303.4174051000009,,5,303.3961857999966,303.4174051000009,303.4174051000009,0.008532300002116244,305.0046885999982,[np.float64(-0.3402777777777778)],[np.float64(-0.1486111111111111)],[1],[0],[0],[1.6083491000026697],['Target'],TWO,001,2025-10-03_08h34.50.824,Visual Search Experiment,,2025.1.1,60.06893510949264,2025-10-03 08h35.06.598694 +0530,
177,0,177,[np.float64(0.42777777777777776)],[np.float64(-0.4166666666666667)],[1],[0],[0],[2.78930450000189],['Target'],177,0,177,0,305.0517538999993,,10,305.03066319999925,305.0517538999993,305.0517538999993,0.025848100005532615,307.8201440999983,[np.float64(0.42777777777777776)],[np.float64(-0.4166666666666667)],[1],[0],[0],[2.78930450000189],['Target'],TWO,001,2025-10-03_08h34.50.824,Visual Search Experiment,,2025.1.1,60.06893510949264,2025-10-03 08h35.06.598694 +0530,
178,0,178,"[np.float64(-0.1597222222222222), np.float64(-0.15694444444444444)]","[np.float64(0.29444444444444445), np.float64(0.29305555555555557)]","[1, 1]","[0, 0]","[0, 0]","[1.7588362000024063, 2.6093252999999095]","[None, 'Target']",178,0,178,0,307.8679893000008,,10,307.8435060999982,307.8679893000008,307.8679893000008,0.023250199999893084,310.4530044999992,"[np.float64(-0.1597222222222222), np.float64(-0.15694444444444444)]","[np.float64(0.29444444444444445), np.float64(0.29305555555555557)]","[1, 1]","[0, 0]","[0, 0]","[1.7588362000024063, 2.6093252999999095]","[None, 'Target']",TWO,001,2025-10-03_08h34.50.824,Visual Search Experiment,,2025.1.1,60.06893510949264,2025-10-03 08h35.06.598694 +0530,
179,0,179,[np.float64(0.3402777777777778)],[np.float64(0.1625)],[1],[0],[0],[1.6407412000044133],['Target'],179,0,179,0,310.4834871999992,,5,310.4619421000025,310.4834871999992,310.4834871999992,0.008716199998161756,312.1028235999984,[np.float64(0.3402777777777778)],[np.float64(0.1625)],[1],[0],[0],[1.6407412000044133],['Target'],TWO,001,2025-10-03_08h34.50.824,Visual Search Experiment,,2025.1.1,60.06893510949264,2025-10-03 08h35.06.598694 +0530,
180,0,180,[np.float64(0.09027777777777778)],[np.float64(-0.3416666666666667)],[1],[0],[0],[1.7123203999944963],['Target'],180,0,180,0,312.1506481999968,,10,312.1232583000019,312.1506481999968,312.1506481999968,0.02035730000352487,313.8357210000031,[np.float64(0.09027777777777778)],[np.float64(-0.3416666666666667)],[1],[0],[0],[1.7123203999944963],['Target'],TWO,001,2025-10-03_08h34.50.824,Visual Search Experiment,,2025.1.1,60.06893510949264,2025-10-03 08h35.06.598694 +0530,
181,0,181,[np.float64(-0.4736111111111111)],[np.float64(-0.4166666666666667)],[1],[0],[0],[1.3983655999982147],['Target'],181,0,181,0,313.86650380000356,,10,313.8536709999971,313.86650380000356,313.86650380000356,0.017851800002972595,315.25217030000204,[np.float64(-0.4736111111111111)],[np.float64(-0.4166666666666667)],[1],[0],[0],[1.3983655999982147],['Target'],TWO,001,2025-10-03_08h34.50.824,Visual Search Experiment,,2025.1.1,60.06893510949264,2025-10-03 08h35.06.598694 +0530,
182,0,182,[np.float64(-0.07361111111111111)],[np.float64(0.1875)],[1],[0],[0],[1.3083990000013728],['Target'],182,0,182,0,315.2825787000038,,5,315.2607025999969,315.2825787000038,315.2825787000038,0.008433700000750832,316.5692421999993,[np.float64(-0.07361111111111111)],[np.float64(0.1875)],[1],[0],[0],[1.3083990000013728],['Target'],TWO,001,2025-10-03_08h34.50.824,Visual Search Experiment,,2025.1.1,60.06893510949264,2025-10-03 08h35.06.598694 +0530,
183,0,183,[np.float64(0.48055555555555557)],[np.float64(-0.3527777777777778)],[1],[0],[0],[1.721474500001932],['Target'],183,0,183,0,316.59948019999865,,5,316.580492699999,316.59948019999865,316.59948019999865,0.011165900003106799,318.30213730000105,[np.float64(0.48055555555555557)],[np.float64(-0.3527777777777778)],[1],[0],[0],[1.721474500001932],['Target'],TWO,001,2025-10-03_08h34.50.824,Visual Search Experiment,,2025.1.1,60.06893510949264,2025-10-03 08h35.06.598694 +0530,
184,0,184,[np.float64(-0.03888888888888889)],[np.float64(-0.15833333333333333)],[1],[0],[0],[2.074339600003441],['Target'],184,0,184,0,318.33250569999655,,5,318.31073040000047,318.33250569999655,318.33250569999655,0.008515100002114195,320.3852382999976,[np.float64(-0.03888888888888889)],[np.float64(-0.15833333333333333)],[1],[0],[0],[2.074339600003441],['Target'],TWO,001,2025-10-03_08h34.50.824,Visual Search Experiment,,2025.1.1,60.06893510949264,2025-10-03 08h35.06.598694 +0530,
185,0,185,[np.float64(-0.3875)],[np.float64(-0.1388888888888889)],[1],[0],[0],[1.4055502000046545],['Target'],185,0,185,0,320.41662540000107,,5,320.3963919000016,320.41662540000107,320.41662540000107,0.011053800000809133,321.80214590000105,[np.float64(-0.3875)],[np.float64(-0.1388888888888889)],[1],[0],[0],[1.4055502000046545],['Target'],TWO,001,2025-10-03_08h34.50.824,Visual Search Experiment,,2025.1.1,60.06893510949264,2025-10-03 08h35.06.598694 +0530,
186,0,186,[np.float64(-0.04583333333333333)],[np.float64(0.22777777777777777)],[1],[0],[0],[1.4558844000057434],['Target'],186,0,186,0,321.8323773000011,,5,321.81246130000363,321.8323773000011,321.8323773000011,0.010213999994448386,323.2685120000024,[np.float64(-0.04583333333333333)],[np.float64(0.22777777777777777)],[1],[0],[0],[1.4558844000057434],['Target'],TWO,001,2025-10-03_08h34.50.824,Visual Search Experiment,,2025.1.1,60.06893510949264,2025-10-03 08h35.06.598694 +0530,
187,0,187,[np.float64(0.006944444444444444)],[np.float64(0.3611111111111111)],[1],[0],[0],[1.09560600000259],['Target'],187,0,187,0,323.31649689999904,,10,323.2899279999983,323.31649689999904,323.31649689999904,0.021300699998391792,324.3857244000028,[np.float64(0.006944444444444444)],[np.float64(0.3611111111111111)],[1],[0],[0],[1.09560600000259],['Target'],TWO,001,2025-10-03_08h34.50.824,Visual Search Experiment,,2025.1.1,60.06893510949264,2025-10-03 08h35.06.598694 +0530,
188,0,188,"[np.float64(0.006944444444444444), np.float64(-0.06111111111111111)]","[np.float64(0.3611111111111111), np.float64(-0.24166666666666667)]","[1, 1]","[0, 0]","[0, 0]","[0.3374517999982345, 1.6033519999982673]","[None, 'Target']",188,0,188,0,324.4152946999966,,5,324.39745969999785,324.4152946999966,324.4152946999966,0.011597400000027847,326.0009627000036,"[np.float64(0.006944444444444444), np.float64(-0.06111111111111111)]","[np.float64(0.3611111111111111), np.float64(-0.24166666666666667)]","[1, 1]","[0, 0]","[0, 0]","[0.3374517999982345, 1.6033519999982673]","[None, 'Target']",TWO,001,2025-10-03_08h34.50.824,Visual Search Experiment,,2025.1.1,60.06893510949264,2025-10-03 08h35.06.598694 +0530,
189,0,189,[np.float64(0.2902777777777778)],[np.float64(0.43333333333333335)],[1],[0],[0],[1.5244979999988573],['Target'],189,0,189,0,326.0505527999994,,10,326.0263550000018,326.0505527999994,326.0505527999994,0.02526900000520982,327.55101950000244,[np.float64(0.2902777777777778)],[np.float64(0.43333333333333335)],[1],[0],[0],[1.5244979999988573],['Target'],TWO,001,2025-10-03_08h34.50.824,Visual Search Experiment,,2025.1.1,60.06893510949264,2025-10-03 08h35.06.598694 +0530,
190,0,190,[np.float64(0.425)],[np.float64(0.13055555555555556)],[1],[0],[0],[1.3124654999992345],['Target'],190,0,190,0,327.5989552000028,,10,327.5724924000024,327.5989552000028,327.5989552000028,0.021315900004992727,328.8851136000012,[np.float64(0.425)],[np.float64(0.13055555555555556)],[1],[0],[0],[1.3124654999992345],['Target'],TWO,001,2025-10-03_08h34.50.824,Visual Search Experiment,,2025.1.1,60.06893510949264,2025-10-03 08h35.06.598694 +0530,
191,0,191,[np.float64(-0.45555555555555555)],[np.float64(-0.4652777777777778)],[1],[0],[0],[2.1385593000013614],['Target'],191,0,191,0,328.91488099999697,,5,328.89496119999967,328.91488099999697,328.91488099999697,0.009735599996929523,331.03369389999716,[np.float64(-0.45555555555555555)],[np.float64(-0.4652777777777778)],[1],[0],[0],[2.1385593000013614],['Target'],TWO,001,2025-10-03_08h34.50.824,Visual Search Experiment,,2025.1.1,60.06893510949264,2025-10-03 08h35.06.598694 +0530,
192,0,192,"[np.float64(0.05277777777777778), np.float64(0.05694444444444444)]","[np.float64(-0.4444444444444444), np.float64(-0.4486111111111111)]","[1, 1]","[0, 0]","[0, 0]","[1.3295043000034639, 2.229519699998491]","[None, 'Target']",192,0,192,0,331.0689631999994,,10,331.05354179999995,331.0689631999994,331.0689631999994,0.019770499995502178,333.2831975000008,"[np.float64(0.05277777777777778), np.float64(0.05694444444444444)]","[np.float64(-0.4444444444444444), np.float64(-0.4486111111111111)]","[1, 1]","[0, 0]","[0, 0]","[1.3295043000034639, 2.229519699998491]","[None, 'Target']",TWO,001,2025-10-03_08h34.50.824,Visual Search Experiment,,2025.1.1,60.06893510949264,2025-10-03 08h35.06.598694 +0530,
193,0,193,[np.float64(-0.07916666666666666)],[np.float64(-0.4166666666666667)],[1],[0],[0],[1.3917402000006405],['Target'],193,0,193,0,333.315004600001,,5,333.2925363000031,333.315004600001,333.315004600001,0.009224299996276386,334.68441509999684,[np.float64(-0.07916666666666666)],[np.float64(-0.4166666666666667)],[1],[0],[0],[1.3917402000006405],['Target'],TWO,001,2025-10-03_08h34.50.824,Visual Search Experiment,,2025.1.1,60.06893510949264,2025-10-03 08h35.06.598694 +0530,
194,0,194,[np.float64(-0.18055555555555555)],[np.float64(-0.044444444444444446)],[1],[0],[0],[1.1460348000036902],['Target'],194,0,194,0,334.71415569999954,,10,334.7035898999966,334.71415569999954,334.71415569999954,0.01908259999618167,335.84977790000266,[np.float64(-0.18055555555555555)],[np.float64(-0.044444444444444446)],[1],[0],[0],[1.1460348000036902],['Target'],TWO,001,2025-10-03_08h34.50.824,Visual Search Experiment,,2025.1.1,60.06893510949264,2025-10-03 08h35.06.598694 +0530,
195,0,195,[np.float64(-0.35833333333333334)],[np.float64(-0.07777777777777778)],[1],[0],[0],[1.0372576000008848],['Target'],195,0,195,0,335.88116029999946,,5,335.8622774999967,335.88116029999946,335.88116029999946,0.012386800000967924,336.8997118999978,[np.float64(-0.35833333333333334)],[np.float64(-0.07777777777777778)],[1],[0],[0],[1.0372576000008848],['Target'],TWO,001,2025-10-03_08h34.50.824,Visual Search Experiment,,2025.1.1,60.06893510949264,2025-10-03 08h35.06.598694 +0530,
196,0,196,[np.float64(0.013888888888888888)],[np.float64(0.19722222222222222)],[1],[0],[0],[1.424898999997822],['Target'],196,0,196,0,336.9308478000021,,5,336.90812529999675,336.9308478000021,336.9308478000021,0.008325999995577149,338.3331521,[np.float64(0.013888888888888888)],[np.float64(0.19722222222222222)],[1],[0],[0],[1.424898999997822],['Target'],TWO,001,2025-10-03_08h34.50.824,Visual Search Experiment,,2025.1.1,60.06893510949264,2025-10-03 08h35.06.598694 +0530,
197,0,197,[np.float64(-0.4125)],[np.float64(0.022222222222222223)],[1],[0],[0],[2.1332142999963253],['Target'],197,0,197,0,338.3642747999984,,10,338.35054220000166,338.3642747999984,338.3642747999984,0.01730130000214558,340.48390810000274,[np.float64(-0.4125)],[np.float64(0.022222222222222223)],[1],[0],[0],[2.1332142999963253],['Target'],TWO,001,2025-10-03_08h34.50.824,Visual Search Experiment,,2025.1.1,60.06893510949264,2025-10-03 08h35.06.598694 +0530,
